"subject","version","assignmentId","trial","trial_type","word","value","alt","value2","choice","rt","resp","resp2","resp3","resp4","used_hint","stamp","id"
"d6220ba5dd432def120772e2e1454e3c","cs_wg_mon_conf_choice_neg_real1","3EICBYG6453N4FUC1RWKRAREBRECJV",0,0,"JANUARY",12,"DECEMBER",8,1,4361,NA,NA,NA,NA,0,"2019-06-05 12:13:20",124717
"d6220ba5dd432def120772e2e1454e3c","cs_wg_mon_conf_choice_neg_real1","3EICBYG6453N4FUC1RWKRAREBRECJV",1,0,"APRIL",3,"JULY",10,0,1158,NA,NA,NA,NA,0,"2019-06-05 12:13:24",124718
"d6220ba5dd432def120772e2e1454e3c","cs_wg_mon_conf_choice_neg_real1","3EICBYG6453N4FUC1RWKRAREBRECJV",2,0,"SEPTEMBER",7,"DECEMBER",7,0,2518,NA,NA,NA,NA,0,"2019-06-05 12:13:29",124719
"d6220ba5dd432def120772e2e1454e3c","cs_wg_mon_conf_choice_neg_real1","3EICBYG6453N4FUC1RWKRAREBRECJV",3,0,"DECEMBER",10,"MAY",7,0,1127,NA,NA,NA,NA,0,"2019-06-05 12:13:33",124720
"d6220ba5dd432def120772e2e1454e3c","cs_wg_mon_conf_choice_neg_real1","3EICBYG6453N4FUC1RWKRAREBRECJV",4,0,"JULY",12,"JANUARY",9,1,1463,NA,NA,NA,NA,0,"2019-06-05 12:13:36",124721
"d6220ba5dd432def120772e2e1454e3c","cs_wg_mon_conf_choice_neg_real1","3EICBYG6453N4FUC1RWKRAREBRECJV",5,0,"FEBRUARY",4,"APRIL",1,0,1601,NA,NA,NA,NA,0,"2019-06-05 12:13:40",124722
"d6220ba5dd432def120772e2e1454e3c","cs_wg_mon_conf_choice_neg_real1","3EICBYG6453N4FUC1RWKRAREBRECJV",6,0,"OCTOBER",10,"FEBRUARY",3,0,1640,NA,NA,NA,NA,0,"2019-06-05 12:13:44",124723
"aa1d5b03db0621cc7b9e52f923bd7d41","cs_wg_mon_conf_choice_neg_real1","3QY5DC2MXSR3L7PG4SQZ6ILSPK3UFJ",0,0,"MAY",4,"JANUARY",13,0,4076,NA,NA,NA,NA,0,"2019-06-05 12:13:47",124724
"aa1d5b03db0621cc7b9e52f923bd7d41","cs_wg_mon_conf_choice_neg_real1","3QY5DC2MXSR3L7PG4SQZ6ILSPK3UFJ",1,0,"MARCH",12,"DECEMBER",2,1,1283,NA,NA,NA,NA,0,"2019-06-05 12:13:50",124725
"46069a952754aca388d18129bfd46f6d","cs_wg_mon_conf_choice_neg_real1","3IQ1VMJRYURA5OK5V19GWLNNFJHA9W",0,0,"JUNE",10,"AUGUST",1,1,3714,NA,NA,NA,NA,0,"2019-06-05 12:13:50",124726
"d6220ba5dd432def120772e2e1454e3c","cs_wg_mon_conf_choice_neg_real1","3EICBYG6453N4FUC1RWKRAREBRECJV",7,0,"AUGUST",7,"FEBRUARY",4,0,2730,NA,NA,NA,NA,0,"2019-06-05 12:13:51",124727
"aa1d5b03db0621cc7b9e52f923bd7d41","cs_wg_mon_conf_choice_neg_real1","3QY5DC2MXSR3L7PG4SQZ6ILSPK3UFJ",2,0,"MARCH",8,"AUGUST",10,0,870,NA,NA,NA,NA,0,"2019-06-05 12:13:53",124728
"46069a952754aca388d18129bfd46f6d","cs_wg_mon_conf_choice_neg_real1","3IQ1VMJRYURA5OK5V19GWLNNFJHA9W",1,0,"NOVEMBER",7,"FEBRUARY",5,0,633,NA,NA,NA,NA,0,"2019-06-05 12:13:53",124729
"d6220ba5dd432def120772e2e1454e3c","cs_wg_mon_conf_choice_neg_real1","3EICBYG6453N4FUC1RWKRAREBRECJV",8,0,"JUNE",2,"DECEMBER",9,0,1344,NA,NA,NA,NA,0,"2019-06-05 12:13:54",124730
"46069a952754aca388d18129bfd46f6d","cs_wg_mon_conf_choice_neg_real1","3IQ1VMJRYURA5OK5V19GWLNNFJHA9W",2,0,"APRIL",4,"AUGUST",2,0,180,NA,NA,NA,NA,0,"2019-06-05 12:13:55",124731
"aa1d5b03db0621cc7b9e52f923bd7d41","cs_wg_mon_conf_choice_neg_real1","3QY5DC2MXSR3L7PG4SQZ6ILSPK3UFJ",3,0,"MARCH",15,"MAY",5,0,725,NA,NA,NA,NA,0,"2019-06-05 12:13:55",124732
"46069a952754aca388d18129bfd46f6d","cs_wg_mon_conf_choice_neg_real1","3IQ1VMJRYURA5OK5V19GWLNNFJHA9W",3,0,"DECEMBER",9,"APRIL",5,0,238,NA,NA,NA,NA,0,"2019-06-05 12:13:57",124733
"0ff5151d7b7da476bf93fe077449162f","cs_wg_mon_conf_choice_neg_real1","3HWRJOOET69V0GXGKCBT9ZI4SM4ES6",0,0,"OCTOBER",7,"APRIL",7,0,6621,NA,NA,NA,NA,0,"2019-06-05 12:13:57",124734
"4e647d8afe3ad4afee614629541a9bc4","cs_wg_mon_conf_choice_neg_real1","3GA6AFUKOPV30933KYIYMU75SMXH3X",0,0,"MAY",8,"NOVEMBER",6,1,4707,NA,NA,NA,NA,0,"2019-06-05 12:13:58",124735
"46069a952754aca388d18129bfd46f6d","cs_wg_mon_conf_choice_neg_real1","3IQ1VMJRYURA5OK5V19GWLNNFJHA9W",4,0,"NOVEMBER",3,"MARCH",0,0,130,NA,NA,NA,NA,0,"2019-06-05 12:13:58",124736
"d6220ba5dd432def120772e2e1454e3c","cs_wg_mon_conf_choice_neg_real1","3EICBYG6453N4FUC1RWKRAREBRECJV",9,0,"MAY",7,"JANUARY",12,1,992,NA,NA,NA,NA,0,"2019-06-05 12:13:59",124737
"aa1d5b03db0621cc7b9e52f923bd7d41","cs_wg_mon_conf_choice_neg_real1","3QY5DC2MXSR3L7PG4SQZ6ILSPK3UFJ",4,0,"JULY",10,"NOVEMBER",3,1,804,NA,NA,NA,NA,0,"2019-06-05 12:13:59",124738
"46069a952754aca388d18129bfd46f6d","cs_wg_mon_conf_choice_neg_real1","3IQ1VMJRYURA5OK5V19GWLNNFJHA9W",5,0,"NOVEMBER",5,"AUGUST",1,0,217,NA,NA,NA,NA,0,"2019-06-05 12:14:00",124739
"4e647d8afe3ad4afee614629541a9bc4","cs_wg_mon_conf_choice_neg_real1","3GA6AFUKOPV30933KYIYMU75SMXH3X",1,0,"MAY",6,"JUNE",3,0,959,NA,NA,NA,NA,0,"2019-06-05 12:14:01",124740
"46069a952754aca388d18129bfd46f6d","cs_wg_mon_conf_choice_neg_real1","3IQ1VMJRYURA5OK5V19GWLNNFJHA9W",6,0,"SEPTEMBER",8,"NOVEMBER",8,0,182,NA,NA,NA,NA,0,"2019-06-05 12:14:02",124741
"aa1d5b03db0621cc7b9e52f923bd7d41","cs_wg_mon_conf_choice_neg_real1","3QY5DC2MXSR3L7PG4SQZ6ILSPK3UFJ",5,0,"OCTOBER",10,"FEBRUARY",-2,1,744,NA,NA,NA,NA,0,"2019-06-05 12:14:02",124742
"d6220ba5dd432def120772e2e1454e3c","cs_wg_mon_conf_choice_neg_real1","3EICBYG6453N4FUC1RWKRAREBRECJV",10,0,"APRIL",3,"MAY",6,0,1217,NA,NA,NA,NA,0,"2019-06-05 12:14:02",124743
"0ff5151d7b7da476bf93fe077449162f","cs_wg_mon_conf_choice_neg_real1","3HWRJOOET69V0GXGKCBT9ZI4SM4ES6",1,0,"AUGUST",0,"OCTOBER",11,1,3396,NA,NA,NA,NA,0,"2019-06-05 12:14:03",124744
"b007722bc37cd70d10475ac40ecc7b3c","cs_wg_mon_conf_choice_neg_real1","3LUY3GC6307DE92E5NTT8KLCJFT7PX",0,0,"JANUARY",8,"OCTOBER",9,0,5417,NA,NA,NA,NA,0,"2019-06-05 12:14:03",124745
"46069a952754aca388d18129bfd46f6d","cs_wg_mon_conf_choice_neg_real1","3IQ1VMJRYURA5OK5V19GWLNNFJHA9W",7,0,"JANUARY",3,"AUGUST",0,0,195,NA,NA,NA,NA,0,"2019-06-05 12:14:03",124746
"aa1d5b03db0621cc7b9e52f923bd7d41","cs_wg_mon_conf_choice_neg_real1","3QY5DC2MXSR3L7PG4SQZ6ILSPK3UFJ",6,0,"NOVEMBER",4,"MARCH",10,1,864,NA,NA,NA,NA,0,"2019-06-05 12:14:05",124747
"46069a952754aca388d18129bfd46f6d","cs_wg_mon_conf_choice_neg_real1","3IQ1VMJRYURA5OK5V19GWLNNFJHA9W",8,0,"JUNE",13,"OCTOBER",7,0,137,NA,NA,NA,NA,0,"2019-06-05 12:14:05",124748
"4e647d8afe3ad4afee614629541a9bc4","cs_wg_mon_conf_choice_neg_real1","3GA6AFUKOPV30933KYIYMU75SMXH3X",2,0,"JULY",13,"JUNE",0,1,1599,NA,NA,NA,NA,0,"2019-06-05 12:14:05",124749
"46069a952754aca388d18129bfd46f6d","cs_wg_mon_conf_choice_neg_real1","3IQ1VMJRYURA5OK5V19GWLNNFJHA9W",9,0,"APRIL",6,"JULY",3,0,297,NA,NA,NA,NA,0,"2019-06-05 12:14:06",124750
"0ff5151d7b7da476bf93fe077449162f","cs_wg_mon_conf_choice_neg_real1","3HWRJOOET69V0GXGKCBT9ZI4SM4ES6",2,0,"APRIL",9,"MAY",7,0,2563,NA,NA,NA,NA,0,"2019-06-05 12:14:07",124751
"b007722bc37cd70d10475ac40ecc7b3c","cs_wg_mon_conf_choice_neg_real1","3LUY3GC6307DE92E5NTT8KLCJFT7PX",1,0,"JULY",4,"AUGUST",5,1,1450,NA,NA,NA,NA,0,"2019-06-05 12:14:08",124752
"aa1d5b03db0621cc7b9e52f923bd7d41","cs_wg_mon_conf_choice_neg_real1","3QY5DC2MXSR3L7PG4SQZ6ILSPK3UFJ",7,0,"SEPTEMBER",6,"FEBRUARY",4,0,1463,NA,NA,NA,NA,0,"2019-06-05 12:14:08",124753
"46069a952754aca388d18129bfd46f6d","cs_wg_mon_conf_choice_neg_real1","3IQ1VMJRYURA5OK5V19GWLNNFJHA9W",10,0,"JANUARY",8,"MARCH",0,0,189,NA,NA,NA,NA,0,"2019-06-05 12:14:08",124754
"46069a952754aca388d18129bfd46f6d","cs_wg_mon_conf_choice_neg_real1","3IQ1VMJRYURA5OK5V19GWLNNFJHA9W",11,0,"MAY",7,"AUGUST",2,0,218,NA,NA,NA,NA,0,"2019-06-05 12:14:10",124755
"d6220ba5dd432def120772e2e1454e3c","cs_wg_mon_conf_choice_neg_real1","3EICBYG6453N4FUC1RWKRAREBRECJV",11,0,"DECEMBER",8,"JANUARY",9,0,1153,NA,NA,NA,NA,0,"2019-06-05 12:14:10",124756
"4e647d8afe3ad4afee614629541a9bc4","cs_wg_mon_conf_choice_neg_real1","3GA6AFUKOPV30933KYIYMU75SMXH3X",3,0,"FEBRUARY",2,"OCTOBER",3,1,2444,NA,NA,NA,NA,0,"2019-06-05 12:14:10",124757
"aa1d5b03db0621cc7b9e52f923bd7d41","cs_wg_mon_conf_choice_neg_real1","3QY5DC2MXSR3L7PG4SQZ6ILSPK3UFJ",8,0,"DECEMBER",-1,"JANUARY",10,0,730,NA,NA,NA,NA,0,"2019-06-05 12:14:10",124758
"0ff5151d7b7da476bf93fe077449162f","cs_wg_mon_conf_choice_neg_real1","3HWRJOOET69V0GXGKCBT9ZI4SM4ES6",3,0,"NOVEMBER",7,"JUNE",6,0,1309,NA,NA,NA,NA,0,"2019-06-05 12:14:11",124759
"b007722bc37cd70d10475ac40ecc7b3c","cs_wg_mon_conf_choice_neg_real1","3LUY3GC6307DE92E5NTT8KLCJFT7PX",2,0,"OCTOBER",12,"JUNE",5,0,1104,NA,NA,NA,NA,0,"2019-06-05 12:14:11",124760
"46069a952754aca388d18129bfd46f6d","cs_wg_mon_conf_choice_neg_real1","3IQ1VMJRYURA5OK5V19GWLNNFJHA9W",12,0,"JANUARY",6,"MAY",9,0,235,NA,NA,NA,NA,0,"2019-06-05 12:14:11",124761
"aa1d5b03db0621cc7b9e52f923bd7d41","cs_wg_mon_conf_choice_neg_real1","3QY5DC2MXSR3L7PG4SQZ6ILSPK3UFJ",9,0,"APRIL",7,"FEBRUARY",1,1,622,NA,NA,NA,NA,0,"2019-06-05 12:14:12",124762
"46069a952754aca388d18129bfd46f6d","cs_wg_mon_conf_choice_neg_real1","3IQ1VMJRYURA5OK5V19GWLNNFJHA9W",13,0,"OCTOBER",9,"APRIL",7,0,153,NA,NA,NA,NA,0,"2019-06-05 12:14:13",124763
"4e647d8afe3ad4afee614629541a9bc4","cs_wg_mon_conf_choice_neg_real1","3GA6AFUKOPV30933KYIYMU75SMXH3X",4,0,"JULY",12,"OCTOBER",5,0,1583,NA,NA,NA,NA,0,"2019-06-05 12:14:14",124764
"0ff5151d7b7da476bf93fe077449162f","cs_wg_mon_conf_choice_neg_real1","3HWRJOOET69V0GXGKCBT9ZI4SM4ES6",4,0,"JUNE",4,"AUGUST",2,1,1406,NA,NA,NA,NA,0,"2019-06-05 12:14:14",124765
"b007722bc37cd70d10475ac40ecc7b3c","cs_wg_mon_conf_choice_neg_real1","3LUY3GC6307DE92E5NTT8KLCJFT7PX",3,0,"APRIL",11,"NOVEMBER",11,1,1274,NA,NA,NA,NA,0,"2019-06-05 12:14:14",124766
"46069a952754aca388d18129bfd46f6d","cs_wg_mon_conf_choice_neg_real1","3IQ1VMJRYURA5OK5V19GWLNNFJHA9W",14,0,"AUGUST",1,"JUNE",9,0,119,NA,NA,NA,NA,0,"2019-06-05 12:14:14",124767
"5528af7ee0e138e557b032194547d5bf","cs_wg_mon_conf_choice_neg_real1","379J5II41PN8W32Q03ESXD490SWELS",0,0,"OCTOBER",3,"JANUARY",2,0,6048,NA,NA,NA,NA,0,"2019-06-05 12:14:14",124768
"aa1d5b03db0621cc7b9e52f923bd7d41","cs_wg_mon_conf_choice_neg_real1","3QY5DC2MXSR3L7PG4SQZ6ILSPK3UFJ",10,0,"NOVEMBER",0,"JUNE",3,1,1089,NA,NA,NA,NA,0,"2019-06-05 12:14:15",124769
"ef0ab7523742e158ec7d3963b238fdf7","cs_wg_mon_conf_choice_neg_real1","3K772S5NP9I6A7J09IZU5LB2JBNHEO",0,0,"FEBRUARY",7,"APRIL",2,0,4248,NA,NA,NA,NA,0,"2019-06-05 12:14:15",124770
"46069a952754aca388d18129bfd46f6d","cs_wg_mon_conf_choice_neg_real1","3IQ1VMJRYURA5OK5V19GWLNNFJHA9W",15,0,"JUNE",12,"MARCH",2,0,163,NA,NA,NA,NA,0,"2019-06-05 12:14:16",124771
"d6220ba5dd432def120772e2e1454e3c","cs_wg_mon_conf_choice_neg_real1","3EICBYG6453N4FUC1RWKRAREBRECJV",12,0,"OCTOBER",8,"MAY",5,0,3255,NA,NA,NA,NA,0,"2019-06-05 12:14:16",124772
"0ff5151d7b7da476bf93fe077449162f","cs_wg_mon_conf_choice_neg_real1","3HWRJOOET69V0GXGKCBT9ZI4SM4ES6",5,0,"JULY",4,"MAY",15,0,778,NA,NA,NA,NA,0,"2019-06-05 12:14:17",124773
"46069a952754aca388d18129bfd46f6d","cs_wg_mon_conf_choice_neg_real1","3IQ1VMJRYURA5OK5V19GWLNNFJHA9W",16,0,"SEPTEMBER",6,"DECEMBER",13,0,133,NA,NA,NA,NA,0,"2019-06-05 12:14:17",124774
"4e647d8afe3ad4afee614629541a9bc4","cs_wg_mon_conf_choice_neg_real1","3GA6AFUKOPV30933KYIYMU75SMXH3X",5,0,"MAY",7,"JULY",8,1,1631,NA,NA,NA,NA,0,"2019-06-05 12:14:17",124775
"aa1d5b03db0621cc7b9e52f923bd7d41","cs_wg_mon_conf_choice_neg_real1","3QY5DC2MXSR3L7PG4SQZ6ILSPK3UFJ",11,0,"AUGUST",5,"JUNE",5,1,709,NA,NA,NA,NA,0,"2019-06-05 12:14:18",124776
"0606a6422ccf8697f3cdaf1ba5938c0e","cs_wg_mon_conf_choice_neg_real1","3HYA4D452SQU1VGEL8GT0ZQ06TK2F9",0,0,"SEPTEMBER",9,"MAY",12,0,3345,NA,NA,NA,NA,0,"2019-06-05 12:14:18",124777
"b007722bc37cd70d10475ac40ecc7b3c","cs_wg_mon_conf_choice_neg_real1","3LUY3GC6307DE92E5NTT8KLCJFT7PX",4,0,"MAY",11,"JULY",3,1,2533,NA,NA,NA,NA,0,"2019-06-05 12:14:19",124778
"46069a952754aca388d18129bfd46f6d","cs_wg_mon_conf_choice_neg_real1","3IQ1VMJRYURA5OK5V19GWLNNFJHA9W",17,0,"FEBRUARY",5,"SEPTEMBER",12,0,154,NA,NA,NA,NA,0,"2019-06-05 12:14:19",124779
"0ff5151d7b7da476bf93fe077449162f","cs_wg_mon_conf_choice_neg_real1","3HWRJOOET69V0GXGKCBT9ZI4SM4ES6",6,0,"APRIL",10,"JANUARY",11,0,922,NA,NA,NA,NA,0,"2019-06-05 12:14:19",124780
"aa1d5b03db0621cc7b9e52f923bd7d41","cs_wg_mon_conf_choice_neg_real1","3QY5DC2MXSR3L7PG4SQZ6ILSPK3UFJ",12,0,"AUGUST",10,"FEBRUARY",2,1,727,NA,NA,NA,NA,0,"2019-06-05 12:14:20",124781
"0606a6422ccf8697f3cdaf1ba5938c0e","cs_wg_mon_conf_choice_neg_real1","3HYA4D452SQU1VGEL8GT0ZQ06TK2F9",1,0,"JULY",6,"APRIL",0,0,461,NA,NA,NA,NA,0,"2019-06-05 12:14:20",124782
"ef0ab7523742e158ec7d3963b238fdf7","cs_wg_mon_conf_choice_neg_real1","3K772S5NP9I6A7J09IZU5LB2JBNHEO",1,0,"SEPTEMBER",12,"AUGUST",8,0,858,NA,NA,NA,NA,0,"2019-06-05 12:14:20",124783
"46069a952754aca388d18129bfd46f6d","cs_wg_mon_conf_choice_neg_real1","3IQ1VMJRYURA5OK5V19GWLNNFJHA9W",18,0,"OCTOBER",10,"DECEMBER",12,0,119,NA,NA,NA,NA,0,"2019-06-05 12:14:21",124784
"d6220ba5dd432def120772e2e1454e3c","cs_wg_mon_conf_choice_neg_real1","3EICBYG6453N4FUC1RWKRAREBRECJV",13,0,"DECEMBER",12,"FEBRUARY",3,0,1727,NA,NA,NA,NA,0,"2019-06-05 12:14:21",124785
"c6e6b8d0f24a8eca0431fee027778ccf","cs_wg_mon_conf_choice_neg_real1","32AT8R96GMGCPCU2ACQYDH47EAXUS2",0,0,"JANUARY",1,"AUGUST",4,0,3744,NA,NA,NA,NA,0,"2019-06-05 12:14:21",124786
"5528af7ee0e138e557b032194547d5bf","cs_wg_mon_conf_choice_neg_real1","379J5II41PN8W32Q03ESXD490SWELS",1,0,"AUGUST",11,"DECEMBER",11,1,2542,NA,NA,NA,NA,0,"2019-06-05 12:14:21",124787
"4e647d8afe3ad4afee614629541a9bc4","cs_wg_mon_conf_choice_neg_real1","3GA6AFUKOPV30933KYIYMU75SMXH3X",6,0,"DECEMBER",10,"SEPTEMBER",10,0,1762,NA,NA,NA,NA,0,"2019-06-05 12:14:21",124788
"0ff5151d7b7da476bf93fe077449162f","cs_wg_mon_conf_choice_neg_real1","3HWRJOOET69V0GXGKCBT9ZI4SM4ES6",7,0,"JUNE",4,"FEBRUARY",8,0,580,NA,NA,NA,NA,0,"2019-06-05 12:14:22",124789
"aa1d5b03db0621cc7b9e52f923bd7d41","cs_wg_mon_conf_choice_neg_real1","3QY5DC2MXSR3L7PG4SQZ6ILSPK3UFJ",13,0,"MAY",6,"JULY",11,0,520,NA,NA,NA,NA,0,"2019-06-05 12:14:22",124790
"0606a6422ccf8697f3cdaf1ba5938c0e","cs_wg_mon_conf_choice_neg_real1","3HYA4D452SQU1VGEL8GT0ZQ06TK2F9",2,0,"JUNE",6,"MAY",12,0,335,NA,NA,NA,NA,0,"2019-06-05 12:14:22",124791
"46069a952754aca388d18129bfd46f6d","cs_wg_mon_conf_choice_neg_real1","3IQ1VMJRYURA5OK5V19GWLNNFJHA9W",19,0,"OCTOBER",10,"FEBRUARY",7,0,153,NA,NA,NA,NA,0,"2019-06-05 12:14:22",124792
"b007722bc37cd70d10475ac40ecc7b3c","cs_wg_mon_conf_choice_neg_real1","3LUY3GC6307DE92E5NTT8KLCJFT7PX",5,0,"AUGUST",5,"DECEMBER",3,1,1847,NA,NA,NA,NA,0,"2019-06-05 12:14:23",124793
"aa1d5b03db0621cc7b9e52f923bd7d41","cs_wg_mon_conf_choice_neg_real1","3QY5DC2MXSR3L7PG4SQZ6ILSPK3UFJ",14,0,"JUNE",2,"APRIL",9,0,349,NA,NA,NA,NA,0,"2019-06-05 12:14:24",124794
"46069a952754aca388d18129bfd46f6d","cs_wg_mon_conf_choice_neg_real1","3IQ1VMJRYURA5OK5V19GWLNNFJHA9W",20,0,"MARCH",-3,"JULY",2,0,168,NA,NA,NA,NA,0,"2019-06-05 12:14:24",124795
"0ff5151d7b7da476bf93fe077449162f","cs_wg_mon_conf_choice_neg_real1","3HWRJOOET69V0GXGKCBT9ZI4SM4ES6",8,0,"JANUARY",8,"JULY",2,0,654,NA,NA,NA,NA,0,"2019-06-05 12:14:24",124796
"0606a6422ccf8697f3cdaf1ba5938c0e","cs_wg_mon_conf_choice_neg_real1","3HYA4D452SQU1VGEL8GT0ZQ06TK2F9",3,0,"APRIL",1,"MAY",11,1,1083,NA,NA,NA,NA,0,"2019-06-05 12:14:25",124797
"d6220ba5dd432def120772e2e1454e3c","cs_wg_mon_conf_choice_neg_real1","3EICBYG6453N4FUC1RWKRAREBRECJV",14,0,"MARCH",7,"OCTOBER",10,0,2161,NA,NA,NA,NA,0,"2019-06-05 12:14:25",124798
"46069a952754aca388d18129bfd46f6d","cs_wg_mon_conf_choice_neg_real1","3IQ1VMJRYURA5OK5V19GWLNNFJHA9W",21,0,"JULY",3,"MAY",6,0,115,NA,NA,NA,NA,0,"2019-06-05 12:14:25",124799
"aa1d5b03db0621cc7b9e52f923bd7d41","cs_wg_mon_conf_choice_neg_real1","3QY5DC2MXSR3L7PG4SQZ6ILSPK3UFJ",15,0,"MARCH",5,"JUNE",4,1,77,NA,NA,NA,NA,0,"2019-06-05 12:14:25",124800
"4e647d8afe3ad4afee614629541a9bc4","cs_wg_mon_conf_choice_neg_real1","3GA6AFUKOPV30933KYIYMU75SMXH3X",7,0,"MAY",7,"OCTOBER",4,0,2531,NA,NA,NA,NA,0,"2019-06-05 12:14:26",124801
"ef0ab7523742e158ec7d3963b238fdf7","cs_wg_mon_conf_choice_neg_real1","3K772S5NP9I6A7J09IZU5LB2JBNHEO",2,0,"JANUARY",4,"OCTOBER",11,1,1910,NA,NA,NA,NA,0,"2019-06-05 12:14:26",124802
"0ff5151d7b7da476bf93fe077449162f","cs_wg_mon_conf_choice_neg_real1","3HWRJOOET69V0GXGKCBT9ZI4SM4ES6",9,0,"OCTOBER",8,"DECEMBER",3,0,558,NA,NA,NA,NA,0,"2019-06-05 12:14:26",124803
"0606a6422ccf8697f3cdaf1ba5938c0e","cs_wg_mon_conf_choice_neg_real1","3HYA4D452SQU1VGEL8GT0ZQ06TK2F9",4,0,"OCTOBER",2,"APRIL",0,1,490,NA,NA,NA,NA,0,"2019-06-05 12:14:27",124804
"46069a952754aca388d18129bfd46f6d","cs_wg_mon_conf_choice_neg_real1","3IQ1VMJRYURA5OK5V19GWLNNFJHA9W",22,0,"APRIL",3,"FEBRUARY",4,0,210,NA,NA,NA,NA,0,"2019-06-05 12:14:27",124805
"a502708665d7f923db9acd8187705704","cs_wg_mon_conf_choice_neg_real1","3R3YRB5GRGA8PG88TC47SHA1S4RAUN",0,0,"NOVEMBER",8,"JULY",10,1,3888,NA,NA,NA,NA,0,"2019-06-05 12:14:27",124806
"aa1d5b03db0621cc7b9e52f923bd7d41","cs_wg_mon_conf_choice_neg_real1","3QY5DC2MXSR3L7PG4SQZ6ILSPK3UFJ",16,0,"OCTOBER",9,"NOVEMBER",5,1,243,NA,NA,NA,NA,0,"2019-06-05 12:14:27",124807
"b007722bc37cd70d10475ac40ecc7b3c","cs_wg_mon_conf_choice_neg_real1","3LUY3GC6307DE92E5NTT8KLCJFT7PX",6,0,"JULY",5,"JUNE",3,1,2198,NA,NA,NA,NA,0,"2019-06-05 12:14:27",124808
"c6e6b8d0f24a8eca0431fee027778ccf","cs_wg_mon_conf_choice_neg_real1","32AT8R96GMGCPCU2ACQYDH47EAXUS2",1,0,"JULY",5,"NOVEMBER",8,0,3950,NA,NA,NA,NA,0,"2019-06-05 12:14:28",124809
"0606a6422ccf8697f3cdaf1ba5938c0e","cs_wg_mon_conf_choice_neg_real1","3HYA4D452SQU1VGEL8GT0ZQ06TK2F9",5,0,"JULY",8,"SEPTEMBER",3,1,304,NA,NA,NA,NA,0,"2019-06-05 12:14:28",124810
"46069a952754aca388d18129bfd46f6d","cs_wg_mon_conf_choice_neg_real1","3IQ1VMJRYURA5OK5V19GWLNNFJHA9W",23,0,"DECEMBER",14,"MAY",6,0,142,NA,NA,NA,NA,0,"2019-06-05 12:14:29",124811
"ef0ab7523742e158ec7d3963b238fdf7","cs_wg_mon_conf_choice_neg_real1","3K772S5NP9I6A7J09IZU5LB2JBNHEO",3,0,"JUNE",0,"DECEMBER",7,1,1358,NA,NA,NA,NA,0,"2019-06-05 12:14:29",124812
"5528af7ee0e138e557b032194547d5bf","cs_wg_mon_conf_choice_neg_real1","379J5II41PN8W32Q03ESXD490SWELS",2,0,"NOVEMBER",2,"OCTOBER",1,0,2652,NA,NA,NA,NA,0,"2019-06-05 12:14:29",124813
"0ff5151d7b7da476bf93fe077449162f","cs_wg_mon_conf_choice_neg_real1","3HWRJOOET69V0GXGKCBT9ZI4SM4ES6",10,0,"JULY",1,"DECEMBER",7,1,934,NA,NA,NA,NA,0,"2019-06-05 12:14:29",124814
"aa1d5b03db0621cc7b9e52f923bd7d41","cs_wg_mon_conf_choice_neg_real1","3QY5DC2MXSR3L7PG4SQZ6ILSPK3UFJ",17,0,"OCTOBER",10,"MAY",2,0,421,NA,NA,NA,NA,0,"2019-06-05 12:14:29",124815
"d6220ba5dd432def120772e2e1454e3c","cs_wg_mon_conf_choice_neg_real1","3EICBYG6453N4FUC1RWKRAREBRECJV",15,0,"AUGUST",9,"JANUARY",8,1,2189,NA,NA,NA,NA,0,"2019-06-05 12:14:29",124816
"4e647d8afe3ad4afee614629541a9bc4","cs_wg_mon_conf_choice_neg_real1","3GA6AFUKOPV30933KYIYMU75SMXH3X",8,0,"JULY",13,"MAY",3,0,1886,NA,NA,NA,NA,0,"2019-06-05 12:14:29",124817
"d9f95e4b4bb24a34da0eaf6b10a60f08","cs_wg_mon_conf_choice_neg_real1","3NXNZ5RS1B4SMMM7OYXWMULXEBB792",0,0,"DECEMBER",2,"APRIL",12,0,5117,NA,NA,NA,NA,0,"2019-06-05 12:14:29",124818
"46069a952754aca388d18129bfd46f6d","cs_wg_mon_conf_choice_neg_real1","3IQ1VMJRYURA5OK5V19GWLNNFJHA9W",24,0,"APRIL",7,"MARCH",3,0,206,NA,NA,NA,NA,0,"2019-06-05 12:14:30",124819
"83c0b73c9ab49fec14345a1c6b769ec0","cs_wg_mon_conf_choice_neg_real1","3Z4AIRP3C7K4CWP32YM11NG2IS1X1D",0,0,"DECEMBER",8,"NOVEMBER",12,0,3867,NA,NA,NA,NA,0,"2019-06-05 12:14:30",124820
"0606a6422ccf8697f3cdaf1ba5938c0e","cs_wg_mon_conf_choice_neg_real1","3HYA4D452SQU1VGEL8GT0ZQ06TK2F9",6,0,"NOVEMBER",10,"MARCH",5,1,544,NA,NA,NA,NA,0,"2019-06-05 12:14:30",124821
"2a74d78b51669090f8a6d97909151eda","cs_wg_mon_conf_choice_neg_real1","3VD82FOHKRV15QL9H4OPZ680ALOCOE",0,0,"OCTOBER",2,"JULY",4,0,17231,NA,NA,NA,NA,0,"2019-06-05 12:14:31",124822
"aa1d5b03db0621cc7b9e52f923bd7d41","cs_wg_mon_conf_choice_neg_real1","3QY5DC2MXSR3L7PG4SQZ6ILSPK3UFJ",18,0,"JANUARY",8,"FEBRUARY",1,1,420,NA,NA,NA,NA,0,"2019-06-05 12:14:31",124823
"0ff5151d7b7da476bf93fe077449162f","cs_wg_mon_conf_choice_neg_real1","3HWRJOOET69V0GXGKCBT9ZI4SM4ES6",11,0,"MAY",12,"APRIL",12,0,795,NA,NA,NA,NA,0,"2019-06-05 12:14:31",124824
"b007722bc37cd70d10475ac40ecc7b3c","cs_wg_mon_conf_choice_neg_real1","3LUY3GC6307DE92E5NTT8KLCJFT7PX",7,0,"JUNE",4,"JANUARY",9,1,1972,NA,NA,NA,NA,0,"2019-06-05 12:14:32",124825
"46069a952754aca388d18129bfd46f6d","cs_wg_mon_conf_choice_neg_real1","3IQ1VMJRYURA5OK5V19GWLNNFJHA9W",25,0,"JANUARY",7,"JUNE",11,0,120,NA,NA,NA,NA,0,"2019-06-05 12:14:32",124826
"4e647d8afe3ad4afee614629541a9bc4","cs_wg_mon_conf_choice_neg_real1","3GA6AFUKOPV30933KYIYMU75SMXH3X",9,0,"FEBRUARY",2,"NOVEMBER",8,1,1065,NA,NA,NA,NA,0,"2019-06-05 12:14:32",124827
"0606a6422ccf8697f3cdaf1ba5938c0e","cs_wg_mon_conf_choice_neg_real1","3HYA4D452SQU1VGEL8GT0ZQ06TK2F9",7,0,"SEPTEMBER",11,"AUGUST",5,0,246,NA,NA,NA,NA,0,"2019-06-05 12:14:32",124828
"d6220ba5dd432def120772e2e1454e3c","cs_wg_mon_conf_choice_neg_real1","3EICBYG6453N4FUC1RWKRAREBRECJV",16,0,"MAY",7,"JUNE",1,1,1767,NA,NA,NA,NA,0,"2019-06-05 12:14:33",124829
"46069a952754aca388d18129bfd46f6d","cs_wg_mon_conf_choice_neg_real1","3IQ1VMJRYURA5OK5V19GWLNNFJHA9W",26,0,"JUNE",13,"FEBRUARY",5,0,156,NA,NA,NA,NA,0,"2019-06-05 12:14:33",124830
"aa1d5b03db0621cc7b9e52f923bd7d41","cs_wg_mon_conf_choice_neg_real1","3QY5DC2MXSR3L7PG4SQZ6ILSPK3UFJ",19,0,"MARCH",6,"SEPTEMBER",5,0,576,NA,NA,NA,NA,0,"2019-06-05 12:14:33",124831
"a502708665d7f923db9acd8187705704","cs_wg_mon_conf_choice_neg_real1","3R3YRB5GRGA8PG88TC47SHA1S4RAUN",1,0,"MAY",15,"OCTOBER",12,0,2795,NA,NA,NA,NA,0,"2019-06-05 12:14:34",124832
"0ff5151d7b7da476bf93fe077449162f","cs_wg_mon_conf_choice_neg_real1","3HWRJOOET69V0GXGKCBT9ZI4SM4ES6",12,0,"MAY",14,"AUGUST",0,1,812,NA,NA,NA,NA,0,"2019-06-05 12:14:34",124833
"c6e6b8d0f24a8eca0431fee027778ccf","cs_wg_mon_conf_choice_neg_real1","32AT8R96GMGCPCU2ACQYDH47EAXUS2",2,0,"SEPTEMBER",13,"DECEMBER",7,0,2965,NA,NA,NA,NA,0,"2019-06-05 12:14:34",124834
"0606a6422ccf8697f3cdaf1ba5938c0e","cs_wg_mon_conf_choice_neg_real1","3HYA4D452SQU1VGEL8GT0ZQ06TK2F9",8,0,"OCTOBER",-3,"MAY",14,0,561,NA,NA,NA,NA,0,"2019-06-05 12:14:34",124835
"ef0ab7523742e158ec7d3963b238fdf7","cs_wg_mon_conf_choice_neg_real1","3K772S5NP9I6A7J09IZU5LB2JBNHEO",4,0,"MARCH",7,"JUNE",0,0,3751,NA,NA,NA,NA,0,"2019-06-05 12:14:34",124836
"b007722bc37cd70d10475ac40ecc7b3c","cs_wg_mon_conf_choice_neg_real1","3LUY3GC6307DE92E5NTT8KLCJFT7PX",8,0,"SEPTEMBER",7,"JUNE",6,0,1280,NA,NA,NA,NA,0,"2019-06-05 12:14:35",124837
"46069a952754aca388d18129bfd46f6d","cs_wg_mon_conf_choice_neg_real1","3IQ1VMJRYURA5OK5V19GWLNNFJHA9W",27,0,"JULY",7,"JUNE",13,0,241,NA,NA,NA,NA,0,"2019-06-05 12:14:35",124838
"4e647d8afe3ad4afee614629541a9bc4","cs_wg_mon_conf_choice_neg_real1","3GA6AFUKOPV30933KYIYMU75SMXH3X",10,0,"MAY",4,"DECEMBER",9,0,1008,NA,NA,NA,NA,0,"2019-06-05 12:14:35",124839
"aa1d5b03db0621cc7b9e52f923bd7d41","cs_wg_mon_conf_choice_neg_real1","3QY5DC2MXSR3L7PG4SQZ6ILSPK3UFJ",20,0,"FEBRUARY",0,"JUNE",2,0,663,NA,NA,NA,NA,0,"2019-06-05 12:14:36",124840
"d6220ba5dd432def120772e2e1454e3c","cs_wg_mon_conf_choice_neg_real1","3EICBYG6453N4FUC1RWKRAREBRECJV",17,0,"AUGUST",7,"DECEMBER",9,0,824,NA,NA,NA,NA,0,"2019-06-05 12:14:36",124841
"5528af7ee0e138e557b032194547d5bf","cs_wg_mon_conf_choice_neg_real1","379J5II41PN8W32Q03ESXD490SWELS",3,0,"DECEMBER",12,"JULY",8,1,2141,NA,NA,NA,NA,0,"2019-06-05 12:14:36",124842
"d9f95e4b4bb24a34da0eaf6b10a60f08","cs_wg_mon_conf_choice_neg_real1","3NXNZ5RS1B4SMMM7OYXWMULXEBB792",1,0,"FEBRUARY",6,"JULY",5,1,2677,NA,NA,NA,NA,0,"2019-06-05 12:14:36",124843
"0ff5151d7b7da476bf93fe077449162f","cs_wg_mon_conf_choice_neg_real1","3HWRJOOET69V0GXGKCBT9ZI4SM4ES6",13,0,"FEBRUARY",8,"APRIL",10,0,491,NA,NA,NA,NA,0,"2019-06-05 12:14:36",124844
"46069a952754aca388d18129bfd46f6d","cs_wg_mon_conf_choice_neg_real1","3IQ1VMJRYURA5OK5V19GWLNNFJHA9W",28,0,"SEPTEMBER",7,"JANUARY",8,0,191,NA,NA,NA,NA,0,"2019-06-05 12:14:36",124845
"0606a6422ccf8697f3cdaf1ba5938c0e","cs_wg_mon_conf_choice_neg_real1","3HYA4D452SQU1VGEL8GT0ZQ06TK2F9",9,0,"MARCH",11,"AUGUST",5,0,1019,NA,NA,NA,NA,0,"2019-06-05 12:14:37",124846
"a502708665d7f923db9acd8187705704","cs_wg_mon_conf_choice_neg_real1","3R3YRB5GRGA8PG88TC47SHA1S4RAUN",2,0,"MARCH",8,"APRIL",3,0,1394,NA,NA,NA,NA,0,"2019-06-05 12:14:37",124847
"aa1d5b03db0621cc7b9e52f923bd7d41","cs_wg_mon_conf_choice_neg_real1","3QY5DC2MXSR3L7PG4SQZ6ILSPK3UFJ",21,0,"SEPTEMBER",4,"JUNE",4,0,480,NA,NA,NA,NA,0,"2019-06-05 12:14:38",124848
"46069a952754aca388d18129bfd46f6d","cs_wg_mon_conf_choice_neg_real1","3IQ1VMJRYURA5OK5V19GWLNNFJHA9W",29,0,"JANUARY",7,"JULY",3,0,143,NA,NA,NA,NA,0,"2019-06-05 12:14:38",124849
"03b602885b5804bf01afc9a814a19c30","cs_wg_mon_conf_choice_neg_real1","3CTOC39K38XHSYZGAAO9BOZ0AGN7JX",0,0,"FEBRUARY",11,"OCTOBER",1,1,4407,NA,NA,NA,NA,0,"2019-06-05 12:14:38",124850
"0ff5151d7b7da476bf93fe077449162f","cs_wg_mon_conf_choice_neg_real1","3HWRJOOET69V0GXGKCBT9ZI4SM4ES6",14,0,"MARCH",7,"MAY",12,0,240,NA,NA,NA,NA,0,"2019-06-05 12:14:38",124851
"b007722bc37cd70d10475ac40ecc7b3c","cs_wg_mon_conf_choice_neg_real1","3LUY3GC6307DE92E5NTT8KLCJFT7PX",9,0,"JUNE",5,"MARCH",-1,1,1431,NA,NA,NA,NA,0,"2019-06-05 12:14:39",124852
"0606a6422ccf8697f3cdaf1ba5938c0e","cs_wg_mon_conf_choice_neg_real1","3HYA4D452SQU1VGEL8GT0ZQ06TK2F9",10,0,"NOVEMBER",11,"JULY",9,0,680,NA,NA,NA,NA,0,"2019-06-05 12:14:39",124853
"46069a952754aca388d18129bfd46f6d","cs_wg_mon_conf_choice_neg_real1","3IQ1VMJRYURA5OK5V19GWLNNFJHA9W",30,0,"APRIL",3,"JUNE",11,0,84,NA,NA,NA,NA,0,"2019-06-05 12:14:39",124854
"4e647d8afe3ad4afee614629541a9bc4","cs_wg_mon_conf_choice_neg_real1","3GA6AFUKOPV30933KYIYMU75SMXH3X",11,0,"JANUARY",6,"FEBRUARY",2,1,2380,NA,NA,NA,NA,0,"2019-06-05 12:14:39",124855
"aa1d5b03db0621cc7b9e52f923bd7d41","cs_wg_mon_conf_choice_neg_real1","3QY5DC2MXSR3L7PG4SQZ6ILSPK3UFJ",22,0,"MARCH",9,"APRIL",6,1,381,NA,NA,NA,NA,0,"2019-06-05 12:14:39",124856
"d6220ba5dd432def120772e2e1454e3c","cs_wg_mon_conf_choice_neg_real1","3EICBYG6453N4FUC1RWKRAREBRECJV",18,0,"JUNE",-1,"MAY",4,0,1376,NA,NA,NA,NA,0,"2019-06-05 12:14:40",124857
"313d98b69d3d4f352a3ffbef73ba44f9","cs_wg_mon_conf_choice_neg_real1","3OF2M9AATHVVNSB4BQG43NSCZYZZKF",0,0,"JULY",5,"OCTOBER",6,1,6612,NA,NA,NA,NA,0,"2019-06-05 12:14:40",124858
"0ff5151d7b7da476bf93fe077449162f","cs_wg_mon_conf_choice_neg_real1","3HWRJOOET69V0GXGKCBT9ZI4SM4ES6",15,0,"APRIL",7,"AUGUST",-2,0,398,NA,NA,NA,NA,0,"2019-06-05 12:14:40",124859
"97f0244747728f90f985af0f5134c2b6","cs_wg_mon_conf_choice_neg_real1","36NEMU28XGKMJL62LF9DJWQY71RMWI",0,0,"JANUARY",4,"OCTOBER",7,1,3455,NA,NA,NA,NA,0,"2019-06-05 12:14:40",124860
"2a74d78b51669090f8a6d97909151eda","cs_wg_mon_conf_choice_neg_real1","3VD82FOHKRV15QL9H4OPZ680ALOCOE",1,0,"FEBRUARY",10,"SEPTEMBER",4,1,1794,NA,NA,NA,NA,0,"2019-06-05 12:14:40",124861
"ef0ab7523742e158ec7d3963b238fdf7","cs_wg_mon_conf_choice_neg_real1","3K772S5NP9I6A7J09IZU5LB2JBNHEO",5,0,"NOVEMBER",9,"FEBRUARY",10,0,2813,NA,NA,NA,NA,0,"2019-06-05 12:14:40",124862
"a502708665d7f923db9acd8187705704","cs_wg_mon_conf_choice_neg_real1","3R3YRB5GRGA8PG88TC47SHA1S4RAUN",3,0,"NOVEMBER",8,"MAY",8,1,931,NA,NA,NA,NA,0,"2019-06-05 12:14:41",124863
"0606a6422ccf8697f3cdaf1ba5938c0e","cs_wg_mon_conf_choice_neg_real1","3HYA4D452SQU1VGEL8GT0ZQ06TK2F9",11,0,"SEPTEMBER",8,"FEBRUARY",6,0,519,NA,NA,NA,NA,0,"2019-06-05 12:14:41",124864
"46069a952754aca388d18129bfd46f6d","cs_wg_mon_conf_choice_neg_real1","3IQ1VMJRYURA5OK5V19GWLNNFJHA9W",31,0,"APRIL",5,"NOVEMBER",9,0,178,NA,NA,NA,NA,0,"2019-06-05 12:14:41",124865
"4ce73caf0540517e6cee3a82ec10425e","cs_wg_mon_conf_choice_neg_real1","3R5F3LQFV3REDJWJ9I8XA49LJ39ZOZ",0,0,"FEBRUARY",6,"JUNE",3,0,7012,NA,NA,NA,NA,0,"2019-06-05 12:14:41",124866
"03b602885b5804bf01afc9a814a19c30","cs_wg_mon_conf_choice_neg_real1","3CTOC39K38XHSYZGAAO9BOZ0AGN7JX",1,0,"MARCH",10,"JULY",3,0,763,NA,NA,NA,NA,0,"2019-06-05 12:14:41",124867
"d9f95e4b4bb24a34da0eaf6b10a60f08","cs_wg_mon_conf_choice_neg_real1","3NXNZ5RS1B4SMMM7OYXWMULXEBB792",2,0,"AUGUST",10,"APRIL",11,1,2142,NA,NA,NA,NA,0,"2019-06-05 12:14:41",124868
"3672ba0dea8ca4c3af20936e2d0f55ae","cs_wg_mon_conf_choice_neg_real1","3U5NZHP4LS9A7Y8QIWF5ZXA6XIPHP9",0,0,"SEPTEMBER",12,"APRIL",7,1,3403,NA,NA,NA,NA,0,"2019-06-05 12:14:41",124869
"aa1d5b03db0621cc7b9e52f923bd7d41","cs_wg_mon_conf_choice_neg_real1","3QY5DC2MXSR3L7PG4SQZ6ILSPK3UFJ",23,0,"MARCH",8,"FEBRUARY",3,0,854,NA,NA,NA,NA,0,"2019-06-05 12:14:42",124870
"b007722bc37cd70d10475ac40ecc7b3c","cs_wg_mon_conf_choice_neg_real1","3LUY3GC6307DE92E5NTT8KLCJFT7PX",10,0,"FEBRUARY",5,"OCTOBER",12,0,1843,NA,NA,NA,NA,0,"2019-06-05 12:14:42",124871
"46069a952754aca388d18129bfd46f6d","cs_wg_mon_conf_choice_neg_real1","3IQ1VMJRYURA5OK5V19GWLNNFJHA9W",32,0,"AUGUST",-1,"MAY",6,0,133,NA,NA,NA,NA,0,"2019-06-05 12:14:42",124872
"0ff5151d7b7da476bf93fe077449162f","cs_wg_mon_conf_choice_neg_real1","3HWRJOOET69V0GXGKCBT9ZI4SM4ES6",16,0,"FEBRUARY",8,"JANUARY",10,0,452,NA,NA,NA,NA,0,"2019-06-05 12:14:42",124873
"4e647d8afe3ad4afee614629541a9bc4","cs_wg_mon_conf_choice_neg_real1","3GA6AFUKOPV30933KYIYMU75SMXH3X",12,0,"JUNE",4,"JULY",12,0,1197,NA,NA,NA,NA,0,"2019-06-05 12:14:42",124874
"d6220ba5dd432def120772e2e1454e3c","cs_wg_mon_conf_choice_neg_real1","3EICBYG6453N4FUC1RWKRAREBRECJV",19,0,"NOVEMBER",4,"JULY",13,1,1111,NA,NA,NA,NA,0,"2019-06-05 12:14:43",124875
"5528af7ee0e138e557b032194547d5bf","cs_wg_mon_conf_choice_neg_real1","379J5II41PN8W32Q03ESXD490SWELS",4,0,"APRIL",9,"MARCH",11,0,2873,NA,NA,NA,NA,0,"2019-06-05 12:14:43",124876
"c6e6b8d0f24a8eca0431fee027778ccf","cs_wg_mon_conf_choice_neg_real1","32AT8R96GMGCPCU2ACQYDH47EAXUS2",3,0,"JUNE",9,"FEBRUARY",3,1,6111,NA,NA,NA,NA,0,"2019-06-05 12:14:43",124877
"0606a6422ccf8697f3cdaf1ba5938c0e","cs_wg_mon_conf_choice_neg_real1","3HYA4D452SQU1VGEL8GT0ZQ06TK2F9",12,0,"DECEMBER",11,"JANUARY",2,1,1216,NA,NA,NA,NA,0,"2019-06-05 12:14:43",124878
"46069a952754aca388d18129bfd46f6d","cs_wg_mon_conf_choice_neg_real1","3IQ1VMJRYURA5OK5V19GWLNNFJHA9W",33,0,"MARCH",3,"DECEMBER",10,0,173,NA,NA,NA,NA,0,"2019-06-05 12:14:44",124879
"aa1d5b03db0621cc7b9e52f923bd7d41","cs_wg_mon_conf_choice_neg_real1","3QY5DC2MXSR3L7PG4SQZ6ILSPK3UFJ",24,0,"APRIL",8,"AUGUST",9,1,581,NA,NA,NA,NA,0,"2019-06-05 12:14:44",124880
"a502708665d7f923db9acd8187705704","cs_wg_mon_conf_choice_neg_real1","3R3YRB5GRGA8PG88TC47SHA1S4RAUN",4,0,"OCTOBER",11,"FEBRUARY",4,1,1285,NA,NA,NA,NA,0,"2019-06-05 12:14:44",124881
"ef0ab7523742e158ec7d3963b238fdf7","cs_wg_mon_conf_choice_neg_real1","3K772S5NP9I6A7J09IZU5LB2JBNHEO",6,0,"MAY",7,"MARCH",5,1,2136,NA,NA,NA,NA,0,"2019-06-05 12:14:44",124882
"0ff5151d7b7da476bf93fe077449162f","cs_wg_mon_conf_choice_neg_real1","3HWRJOOET69V0GXGKCBT9ZI4SM4ES6",17,0,"MAY",11,"SEPTEMBER",2,1,769,NA,NA,NA,NA,0,"2019-06-05 12:14:45",124883
"4e647d8afe3ad4afee614629541a9bc4","cs_wg_mon_conf_choice_neg_real1","3GA6AFUKOPV30933KYIYMU75SMXH3X",13,0,"MARCH",1,"JULY",12,1,972,NA,NA,NA,NA,0,"2019-06-05 12:14:45",124884
"03b602885b5804bf01afc9a814a19c30","cs_wg_mon_conf_choice_neg_real1","3CTOC39K38XHSYZGAAO9BOZ0AGN7JX",2,0,"NOVEMBER",7,"JUNE",10,0,1302,NA,NA,NA,NA,0,"2019-06-05 12:14:45",124885
"0606a6422ccf8697f3cdaf1ba5938c0e","cs_wg_mon_conf_choice_neg_real1","3HYA4D452SQU1VGEL8GT0ZQ06TK2F9",13,0,"MARCH",11,"OCTOBER",2,0,657,NA,NA,NA,NA,0,"2019-06-05 12:14:45",124886
"46069a952754aca388d18129bfd46f6d","cs_wg_mon_conf_choice_neg_real1","3IQ1VMJRYURA5OK5V19GWLNNFJHA9W",34,0,"JUNE",12,"JANUARY",6,0,181,NA,NA,NA,NA,0,"2019-06-05 12:14:45",124887
"97f0244747728f90f985af0f5134c2b6","cs_wg_mon_conf_choice_neg_real1","36NEMU28XGKMJL62LF9DJWQY71RMWI",1,0,"MAY",7,"JANUARY",6,0,2437,NA,NA,NA,NA,0,"2019-06-05 12:14:46",124888
"d6220ba5dd432def120772e2e1454e3c","cs_wg_mon_conf_choice_neg_real1","3EICBYG6453N4FUC1RWKRAREBRECJV",20,0,"APRIL",3,"AUGUST",7,1,1217,NA,NA,NA,NA,0,"2019-06-05 12:14:46",124889
"aa1d5b03db0621cc7b9e52f923bd7d41","cs_wg_mon_conf_choice_neg_real1","3QY5DC2MXSR3L7PG4SQZ6ILSPK3UFJ",25,0,"DECEMBER",4,"FEBRUARY",5,0,720,NA,NA,NA,NA,0,"2019-06-05 12:14:46",124890
"b007722bc37cd70d10475ac40ecc7b3c","cs_wg_mon_conf_choice_neg_real1","3LUY3GC6307DE92E5NTT8KLCJFT7PX",11,0,"MARCH",6,"NOVEMBER",7,1,1885,NA,NA,NA,NA,0,"2019-06-05 12:14:46",124891
"3672ba0dea8ca4c3af20936e2d0f55ae","cs_wg_mon_conf_choice_neg_real1","3U5NZHP4LS9A7Y8QIWF5ZXA6XIPHP9",1,0,"JUNE",8,"NOVEMBER",12,0,2448,NA,NA,NA,NA,0,"2019-06-05 12:14:46",124892
"4ce73caf0540517e6cee3a82ec10425e","cs_wg_mon_conf_choice_neg_real1","3R5F3LQFV3REDJWJ9I8XA49LJ39ZOZ",1,0,"FEBRUARY",7,"OCTOBER",8,0,2281,NA,NA,NA,NA,0,"2019-06-05 12:14:46",124893
"ef0ab7523742e158ec7d3963b238fdf7","cs_wg_mon_conf_choice_neg_real1","3K772S5NP9I6A7J09IZU5LB2JBNHEO",7,0,"APRIL",0,"NOVEMBER",7,1,1214,NA,NA,NA,NA,0,"2019-06-05 12:14:46",124894
"83c0b73c9ab49fec14345a1c6b769ec0","cs_wg_mon_conf_choice_neg_real1","3Z4AIRP3C7K4CWP32YM11NG2IS1X1D",1,0,"SEPTEMBER",13,"JANUARY",7,1,4331,NA,NA,NA,NA,0,"2019-06-05 12:14:46",124895
"313d98b69d3d4f352a3ffbef73ba44f9","cs_wg_mon_conf_choice_neg_real1","3OF2M9AATHVVNSB4BQG43NSCZYZZKF",1,0,"SEPTEMBER",7,"JANUARY",5,0,1610,NA,NA,NA,NA,0,"2019-06-05 12:14:46",124896
"5528af7ee0e138e557b032194547d5bf","cs_wg_mon_conf_choice_neg_real1","379J5II41PN8W32Q03ESXD490SWELS",5,0,"JANUARY",3,"NOVEMBER",6,0,1244,NA,NA,NA,NA,0,"2019-06-05 12:14:47",124897
"0ff5151d7b7da476bf93fe077449162f","cs_wg_mon_conf_choice_neg_real1","3HWRJOOET69V0GXGKCBT9ZI4SM4ES6",18,0,"DECEMBER",6,"JANUARY",10,0,469,NA,NA,NA,NA,0,"2019-06-05 12:14:47",124898
"0606a6422ccf8697f3cdaf1ba5938c0e","cs_wg_mon_conf_choice_neg_real1","3HYA4D452SQU1VGEL8GT0ZQ06TK2F9",14,0,"DECEMBER",9,"AUGUST",5,0,537,NA,NA,NA,NA,0,"2019-06-05 12:14:47",124899
"46069a952754aca388d18129bfd46f6d","cs_wg_mon_conf_choice_neg_real1","3IQ1VMJRYURA5OK5V19GWLNNFJHA9W",35,0,"DECEMBER",12,"NOVEMBER",6,0,132,NA,NA,NA,NA,0,"2019-06-05 12:14:48",124900
"aa1d5b03db0621cc7b9e52f923bd7d41","cs_wg_mon_conf_choice_neg_real1","3QY5DC2MXSR3L7PG4SQZ6ILSPK3UFJ",26,0,"NOVEMBER",2,"OCTOBER",10,1,312,NA,NA,NA,NA,0,"2019-06-05 12:14:48",124901
"c6e6b8d0f24a8eca0431fee027778ccf","cs_wg_mon_conf_choice_neg_real1","32AT8R96GMGCPCU2ACQYDH47EAXUS2",4,0,"SEPTEMBER",12,"FEBRUARY",5,0,2526,NA,NA,NA,NA,0,"2019-06-05 12:14:48",124902
"03b602885b5804bf01afc9a814a19c30","cs_wg_mon_conf_choice_neg_real1","3CTOC39K38XHSYZGAAO9BOZ0AGN7JX",3,0,"NOVEMBER",5,"APRIL",6,0,863,NA,NA,NA,NA,0,"2019-06-05 12:14:48",124903
"d9f95e4b4bb24a34da0eaf6b10a60f08","cs_wg_mon_conf_choice_neg_real1","3NXNZ5RS1B4SMMM7OYXWMULXEBB792",3,0,"MARCH",6,"JUNE",4,1,4205,NA,NA,NA,NA,0,"2019-06-05 12:14:48",124904
"adcee5ecf15a329d2c6291b5e01d7191","cs_wg_mon_conf_choice_neg_real1","3YGXWBAF71OX1XBRYK9GL82VTUO4CW",0,0,"JULY",2,"AUGUST",6,0,7453,NA,NA,NA,NA,0,"2019-06-05 12:14:48",124905
"a502708665d7f923db9acd8187705704","cs_wg_mon_conf_choice_neg_real1","3R3YRB5GRGA8PG88TC47SHA1S4RAUN",5,0,"APRIL",3,"SEPTEMBER",1,0,2570,NA,NA,NA,NA,0,"2019-06-05 12:14:49",124906
"2a74d78b51669090f8a6d97909151eda","cs_wg_mon_conf_choice_neg_real1","3VD82FOHKRV15QL9H4OPZ680ALOCOE",2,0,"SEPTEMBER",8,"JANUARY",10,1,3688,NA,NA,NA,NA,0,"2019-06-05 12:14:49",124907
"3672ba0dea8ca4c3af20936e2d0f55ae","cs_wg_mon_conf_choice_neg_real1","3U5NZHP4LS9A7Y8QIWF5ZXA6XIPHP9",2,0,"JULY",6,"FEBRUARY",11,0,558,NA,NA,NA,NA,0,"2019-06-05 12:14:49",124908
"d6220ba5dd432def120772e2e1454e3c","cs_wg_mon_conf_choice_neg_real1","3EICBYG6453N4FUC1RWKRAREBRECJV",21,0,"APRIL",2,"JUNE",3,1,1257,NA,NA,NA,NA,0,"2019-06-05 12:14:49",124909
"0ff5151d7b7da476bf93fe077449162f","cs_wg_mon_conf_choice_neg_real1","3HWRJOOET69V0GXGKCBT9ZI4SM4ES6",19,0,"OCTOBER",10,"JUNE",4,0,484,NA,NA,NA,NA,0,"2019-06-05 12:14:49",124910
"46069a952754aca388d18129bfd46f6d","cs_wg_mon_conf_choice_neg_real1","3IQ1VMJRYURA5OK5V19GWLNNFJHA9W",36,0,"APRIL",6,"OCTOBER",9,0,321,NA,NA,NA,NA,0,"2019-06-05 12:14:49",124911
"0606a6422ccf8697f3cdaf1ba5938c0e","cs_wg_mon_conf_choice_neg_real1","3HYA4D452SQU1VGEL8GT0ZQ06TK2F9",15,0,"SEPTEMBER",7,"JULY",5,0,855,NA,NA,NA,NA,0,"2019-06-05 12:14:50",124912
"b007722bc37cd70d10475ac40ecc7b3c","cs_wg_mon_conf_choice_neg_real1","3LUY3GC6307DE92E5NTT8KLCJFT7PX",12,0,"MAY",11,"JANUARY",5,1,1490,NA,NA,NA,NA,0,"2019-06-05 12:14:50",124913
"aa1d5b03db0621cc7b9e52f923bd7d41","cs_wg_mon_conf_choice_neg_real1","3QY5DC2MXSR3L7PG4SQZ6ILSPK3UFJ",27,0,"MARCH",9,"JANUARY",12,1,369,NA,NA,NA,NA,0,"2019-06-05 12:14:50",124914
"97f0244747728f90f985af0f5134c2b6","cs_wg_mon_conf_choice_neg_real1","36NEMU28XGKMJL62LF9DJWQY71RMWI",2,0,"JUNE",6,"AUGUST",5,1,1322,NA,NA,NA,NA,0,"2019-06-05 12:14:50",124915
"ef0ab7523742e158ec7d3963b238fdf7","cs_wg_mon_conf_choice_neg_real1","3K772S5NP9I6A7J09IZU5LB2JBNHEO",8,0,"JANUARY",5,"MARCH",8,0,1812,NA,NA,NA,NA,0,"2019-06-05 12:14:50",124916
"922cdd7a04398b2a20d8a0ea057fef45","cs_wg_mon_conf_choice_neg_real1","3S96KQ6I9NBRNAWVDH5ZDMW5UTHDT1",0,0,"JANUARY",4,"MAY",2,0,3851,NA,NA,NA,NA,0,"2019-06-05 12:14:50",124917
"313d98b69d3d4f352a3ffbef73ba44f9","cs_wg_mon_conf_choice_neg_real1","3OF2M9AATHVVNSB4BQG43NSCZYZZKF",2,0,"JULY",3,"JANUARY",2,0,1365,NA,NA,NA,NA,0,"2019-06-05 12:14:50",124918
"4e647d8afe3ad4afee614629541a9bc4","cs_wg_mon_conf_choice_neg_real1","3GA6AFUKOPV30933KYIYMU75SMXH3X",14,0,"MARCH",-2,"JANUARY",9,1,3077,NA,NA,NA,NA,0,"2019-06-05 12:14:50",124919
"46069a952754aca388d18129bfd46f6d","cs_wg_mon_conf_choice_neg_real1","3IQ1VMJRYURA5OK5V19GWLNNFJHA9W",37,0,"SEPTEMBER",9,"AUGUST",0,0,208,NA,NA,NA,NA,0,"2019-06-05 12:14:51",124920
"4ce73caf0540517e6cee3a82ec10425e","cs_wg_mon_conf_choice_neg_real1","3R5F3LQFV3REDJWJ9I8XA49LJ39ZOZ",2,0,"NOVEMBER",6,"MAY",11,0,2282,NA,NA,NA,NA,0,"2019-06-05 12:14:51",124921
"3672ba0dea8ca4c3af20936e2d0f55ae","cs_wg_mon_conf_choice_neg_real1","3U5NZHP4LS9A7Y8QIWF5ZXA6XIPHP9",3,0,"NOVEMBER",9,"JUNE",9,0,343,NA,NA,NA,NA,0,"2019-06-05 12:14:51",124922
"83c0b73c9ab49fec14345a1c6b769ec0","cs_wg_mon_conf_choice_neg_real1","3Z4AIRP3C7K4CWP32YM11NG2IS1X1D",2,0,"MAY",1,"MARCH",9,0,2835,NA,NA,NA,NA,0,"2019-06-05 12:14:51",124923
"aa1d5b03db0621cc7b9e52f923bd7d41","cs_wg_mon_conf_choice_neg_real1","3QY5DC2MXSR3L7PG4SQZ6ILSPK3UFJ",28,0,"JANUARY",13,"MARCH",8,0,107,NA,NA,NA,NA,0,"2019-06-05 12:14:52",124924
"313d98b69d3d4f352a3ffbef73ba44f9","cs_wg_mon_conf_choice_neg_real1","3OF2M9AATHVVNSB4BQG43NSCZYZZKF",3,0,"MARCH",11,"DECEMBER",4,1,710,NA,NA,NA,NA,0,"2019-06-05 12:14:52",124925
"03b602885b5804bf01afc9a814a19c30","cs_wg_mon_conf_choice_neg_real1","3CTOC39K38XHSYZGAAO9BOZ0AGN7JX",4,0,"FEBRUARY",12,"MARCH",11,0,1138,NA,NA,NA,NA,0,"2019-06-05 12:14:52",124926
"0606a6422ccf8697f3cdaf1ba5938c0e","cs_wg_mon_conf_choice_neg_real1","3HYA4D452SQU1VGEL8GT0ZQ06TK2F9",16,0,"JANUARY",3,"AUGUST",2,0,926,NA,NA,NA,NA,0,"2019-06-05 12:14:52",124927
"5528af7ee0e138e557b032194547d5bf","cs_wg_mon_conf_choice_neg_real1","379J5II41PN8W32Q03ESXD490SWELS",6,0,"SEPTEMBER",7,"DECEMBER",11,0,1779,NA,NA,NA,NA,0,"2019-06-05 12:14:52",124928
"0ff5151d7b7da476bf93fe077449162f","cs_wg_mon_conf_choice_neg_real1","3HWRJOOET69V0GXGKCBT9ZI4SM4ES6",20,0,"MARCH",6,"FEBRUARY",9,0,589,NA,NA,NA,NA,0,"2019-06-05 12:14:52",124929
"d6220ba5dd432def120772e2e1454e3c","cs_wg_mon_conf_choice_neg_real1","3EICBYG6453N4FUC1RWKRAREBRECJV",22,0,"MARCH",8,"NOVEMBER",3,0,1465,NA,NA,NA,NA,0,"2019-06-05 12:14:52",124930
"46069a952754aca388d18129bfd46f6d","cs_wg_mon_conf_choice_neg_real1","3IQ1VMJRYURA5OK5V19GWLNNFJHA9W",38,0,"MAY",9,"OCTOBER",10,0,191,NA,NA,NA,NA,0,"2019-06-05 12:14:52",124931
"ef0ab7523742e158ec7d3963b238fdf7","cs_wg_mon_conf_choice_neg_real1","3K772S5NP9I6A7J09IZU5LB2JBNHEO",9,0,"DECEMBER",3,"SEPTEMBER",13,1,1317,NA,NA,NA,NA,0,"2019-06-05 12:14:53",124932
"c6e6b8d0f24a8eca0431fee027778ccf","cs_wg_mon_conf_choice_neg_real1","32AT8R96GMGCPCU2ACQYDH47EAXUS2",5,0,"AUGUST",3,"JANUARY",3,0,2253,NA,NA,NA,NA,0,"2019-06-05 12:14:53",124933
"b007722bc37cd70d10475ac40ecc7b3c","cs_wg_mon_conf_choice_neg_real1","3LUY3GC6307DE92E5NTT8KLCJFT7PX",13,0,"DECEMBER",0,"JULY",4,0,1641,NA,NA,NA,NA,0,"2019-06-05 12:14:53",124934
"d9f95e4b4bb24a34da0eaf6b10a60f08","cs_wg_mon_conf_choice_neg_real1","3NXNZ5RS1B4SMMM7OYXWMULXEBB792",4,0,"JUNE",4,"APRIL",12,1,2525,NA,NA,NA,NA,0,"2019-06-05 12:14:53",124935
"a502708665d7f923db9acd8187705704","cs_wg_mon_conf_choice_neg_real1","3R3YRB5GRGA8PG88TC47SHA1S4RAUN",6,0,"NOVEMBER",3,"JUNE",6,0,2979,NA,NA,NA,NA,0,"2019-06-05 12:14:54",124936
"7beae255fd7d34f1cbf5d3515d72128b","cs_wg_mon_conf_choice_neg_real1","39ASUFLU6YE3WXJFEMHG87ZW716EXE",0,0,"DECEMBER",9,"MAY",9,0,5147,NA,NA,NA,NA,0,"2019-06-05 12:14:54",124937
"3672ba0dea8ca4c3af20936e2d0f55ae","cs_wg_mon_conf_choice_neg_real1","3U5NZHP4LS9A7Y8QIWF5ZXA6XIPHP9",4,0,"APRIL",9,"DECEMBER",6,1,334,NA,NA,NA,NA,0,"2019-06-05 12:14:54",124938
"adcee5ecf15a329d2c6291b5e01d7191","cs_wg_mon_conf_choice_neg_real1","3YGXWBAF71OX1XBRYK9GL82VTUO4CW",1,0,"APRIL",12,"MAY",1,1,2042,NA,NA,NA,NA,0,"2019-06-05 12:14:54",124939
"46069a952754aca388d18129bfd46f6d","cs_wg_mon_conf_choice_neg_real1","3IQ1VMJRYURA5OK5V19GWLNNFJHA9W",39,0,"NOVEMBER",7,"JULY",5,0,96,NA,NA,NA,NA,0,"2019-06-05 12:14:54",124940
"4e647d8afe3ad4afee614629541a9bc4","cs_wg_mon_conf_choice_neg_real1","3GA6AFUKOPV30933KYIYMU75SMXH3X",15,0,"OCTOBER",4,"FEBRUARY",-1,0,1813,NA,NA,NA,NA,0,"2019-06-05 12:14:54",124941
"313d98b69d3d4f352a3ffbef73ba44f9","cs_wg_mon_conf_choice_neg_real1","3OF2M9AATHVVNSB4BQG43NSCZYZZKF",4,0,"SEPTEMBER",11,"JULY",5,0,608,NA,NA,NA,NA,0,"2019-06-05 12:14:54",124942
"01bccaa4dd71661a7bc855c50cc08033","cs_wg_mon_conf_choice_neg_real1","33OOO72IVISHIIQHDLAOTGEN9T5CT0",0,0,"SEPTEMBER",12,"JUNE",6,1,7934,NA,NA,NA,NA,0,"2019-06-05 12:14:54",124943
"0606a6422ccf8697f3cdaf1ba5938c0e","cs_wg_mon_conf_choice_neg_real1","3HYA4D452SQU1VGEL8GT0ZQ06TK2F9",17,0,"APRIL",2,"SEPTEMBER",7,0,658,NA,NA,NA,NA,0,"2019-06-05 12:14:54",124944
"2a74d78b51669090f8a6d97909151eda","cs_wg_mon_conf_choice_neg_real1","3VD82FOHKRV15QL9H4OPZ680ALOCOE",3,0,"MAY",12,"NOVEMBER",2,0,2382,NA,NA,NA,NA,0,"2019-06-05 12:14:54",124945
"97f0244747728f90f985af0f5134c2b6","cs_wg_mon_conf_choice_neg_real1","36NEMU28XGKMJL62LF9DJWQY71RMWI",3,0,"JUNE",7,"JULY",2,0,1636,NA,NA,NA,NA,0,"2019-06-05 12:14:54",124946
"4ce73caf0540517e6cee3a82ec10425e","cs_wg_mon_conf_choice_neg_real1","3R5F3LQFV3REDJWJ9I8XA49LJ39ZOZ",3,0,"JUNE",4,"AUGUST",9,0,1038,NA,NA,NA,NA,0,"2019-06-05 12:14:55",124947
"0ff5151d7b7da476bf93fe077449162f","cs_wg_mon_conf_choice_neg_real1","3HWRJOOET69V0GXGKCBT9ZI4SM4ES6",21,0,"APRIL",12,"DECEMBER",1,1,663,NA,NA,NA,NA,0,"2019-06-05 12:14:55",124948
"03b602885b5804bf01afc9a814a19c30","cs_wg_mon_conf_choice_neg_real1","3CTOC39K38XHSYZGAAO9BOZ0AGN7JX",5,0,"JUNE",8,"FEBRUARY",11,0,1322,NA,NA,NA,NA,0,"2019-06-05 12:14:55",124949
"922cdd7a04398b2a20d8a0ea057fef45","cs_wg_mon_conf_choice_neg_real1","3S96KQ6I9NBRNAWVDH5ZDMW5UTHDT1",1,0,"NOVEMBER",10,"JUNE",9,1,2355,NA,NA,NA,NA,0,"2019-06-05 12:14:55",124950
"aa1d5b03db0621cc7b9e52f923bd7d41","cs_wg_mon_conf_choice_neg_real1","3QY5DC2MXSR3L7PG4SQZ6ILSPK3UFJ",29,0,"APRIL",7,"SEPTEMBER",5,0,169,NA,NA,NA,NA,0,"2019-06-05 12:14:55",124951
"ef0ab7523742e158ec7d3963b238fdf7","cs_wg_mon_conf_choice_neg_real1","3K772S5NP9I6A7J09IZU5LB2JBNHEO",10,0,"DECEMBER",3,"JULY",6,0,1143,NA,NA,NA,NA,0,"2019-06-05 12:14:55",124952
"83c0b73c9ab49fec14345a1c6b769ec0","cs_wg_mon_conf_choice_neg_real1","3Z4AIRP3C7K4CWP32YM11NG2IS1X1D",3,0,"DECEMBER",5,"JUNE",6,1,1598,NA,NA,NA,NA,0,"2019-06-05 12:14:55",124953
"46069a952754aca388d18129bfd46f6d","cs_wg_mon_conf_choice_neg_real1","3IQ1VMJRYURA5OK5V19GWLNNFJHA9W",40,0,"OCTOBER",10,"AUGUST",1,0,254,NA,NA,NA,NA,0,"2019-06-05 12:14:55",124954
"d6220ba5dd432def120772e2e1454e3c","cs_wg_mon_conf_choice_neg_real1","3EICBYG6453N4FUC1RWKRAREBRECJV",23,0,"SEPTEMBER",3,"OCTOBER",7,0,1584,NA,NA,NA,NA,0,"2019-06-05 12:14:56",124955
"3672ba0dea8ca4c3af20936e2d0f55ae","cs_wg_mon_conf_choice_neg_real1","3U5NZHP4LS9A7Y8QIWF5ZXA6XIPHP9",5,0,"MARCH",6,"NOVEMBER",12,0,290,NA,NA,NA,NA,0,"2019-06-05 12:14:56",124956
"0606a6422ccf8697f3cdaf1ba5938c0e","cs_wg_mon_conf_choice_neg_real1","3HYA4D452SQU1VGEL8GT0ZQ06TK2F9",18,0,"FEBRUARY",2,"NOVEMBER",9,0,537,NA,NA,NA,NA,0,"2019-06-05 12:14:56",124957
"b007722bc37cd70d10475ac40ecc7b3c","cs_wg_mon_conf_choice_neg_real1","3LUY3GC6307DE92E5NTT8KLCJFT7PX",14,0,"JANUARY",9,"APRIL",9,0,1230,NA,NA,NA,NA,0,"2019-06-05 12:14:56",124958
"a502708665d7f923db9acd8187705704","cs_wg_mon_conf_choice_neg_real1","3R3YRB5GRGA8PG88TC47SHA1S4RAUN",7,0,"DECEMBER",6,"OCTOBER",10,1,1059,NA,NA,NA,NA,0,"2019-06-05 12:14:56",124959
"0ff5151d7b7da476bf93fe077449162f","cs_wg_mon_conf_choice_neg_real1","3HWRJOOET69V0GXGKCBT9ZI4SM4ES6",22,0,"JULY",0,"NOVEMBER",7,0,186,NA,NA,NA,NA,0,"2019-06-05 12:14:57",124960
"46069a952754aca388d18129bfd46f6d","cs_wg_mon_conf_choice_neg_real1","3IQ1VMJRYURA5OK5V19GWLNNFJHA9W",41,0,"AUGUST",0,"MARCH",2,0,194,NA,NA,NA,NA,0,"2019-06-05 12:14:57",124961
"313d98b69d3d4f352a3ffbef73ba44f9","cs_wg_mon_conf_choice_neg_real1","3OF2M9AATHVVNSB4BQG43NSCZYZZKF",5,0,"MARCH",11,"FEBRUARY",6,0,1398,NA,NA,NA,NA,0,"2019-06-05 12:14:57",124962
"aa1d5b03db0621cc7b9e52f923bd7d41","cs_wg_mon_conf_choice_neg_real1","3QY5DC2MXSR3L7PG4SQZ6ILSPK3UFJ",30,0,"SEPTEMBER",8,"MARCH",8,0,940,NA,NA,NA,NA,0,"2019-06-05 12:14:57",124963
"4e647d8afe3ad4afee614629541a9bc4","cs_wg_mon_conf_choice_neg_real1","3GA6AFUKOPV30933KYIYMU75SMXH3X",16,0,"OCTOBER",6,"AUGUST",3,0,2145,NA,NA,NA,NA,0,"2019-06-05 12:14:58",124964
"97f0244747728f90f985af0f5134c2b6","cs_wg_mon_conf_choice_neg_real1","36NEMU28XGKMJL62LF9DJWQY71RMWI",4,0,"NOVEMBER",12,"APRIL",8,0,999,NA,NA,NA,NA,0,"2019-06-05 12:14:58",124965
"7beae255fd7d34f1cbf5d3515d72128b","cs_wg_mon_conf_choice_neg_real1","39ASUFLU6YE3WXJFEMHG87ZW716EXE",1,0,"APRIL",3,"JUNE",12,1,1874,NA,NA,NA,NA,0,"2019-06-05 12:14:58",124966
"d9f95e4b4bb24a34da0eaf6b10a60f08","cs_wg_mon_conf_choice_neg_real1","3NXNZ5RS1B4SMMM7OYXWMULXEBB792",5,0,"JANUARY",11,"JULY",1,1,1924,NA,NA,NA,NA,0,"2019-06-05 12:14:58",124967
"c6e6b8d0f24a8eca0431fee027778ccf","cs_wg_mon_conf_choice_neg_real1","32AT8R96GMGCPCU2ACQYDH47EAXUS2",6,0,"AUGUST",7,"MARCH",9,1,2485,NA,NA,NA,NA,0,"2019-06-05 12:14:58",124968
"0ff5151d7b7da476bf93fe077449162f","cs_wg_mon_conf_choice_neg_real1","3HWRJOOET69V0GXGKCBT9ZI4SM4ES6",23,0,"AUGUST",0,"NOVEMBER",11,0,356,NA,NA,NA,NA,0,"2019-06-05 12:14:58",124969
"adcee5ecf15a329d2c6291b5e01d7191","cs_wg_mon_conf_choice_neg_real1","3YGXWBAF71OX1XBRYK9GL82VTUO4CW",2,0,"JUNE",5,"APRIL",7,0,1203,NA,NA,NA,NA,0,"2019-06-05 12:14:58",124970
"83c0b73c9ab49fec14345a1c6b769ec0","cs_wg_mon_conf_choice_neg_real1","3Z4AIRP3C7K4CWP32YM11NG2IS1X1D",4,0,"DECEMBER",4,"AUGUST",7,1,917,NA,NA,NA,NA,0,"2019-06-05 12:14:58",124971
"4ce73caf0540517e6cee3a82ec10425e","cs_wg_mon_conf_choice_neg_real1","3R5F3LQFV3REDJWJ9I8XA49LJ39ZOZ",4,0,"OCTOBER",5,"JULY",3,0,1486,NA,NA,NA,NA,0,"2019-06-05 12:14:58",124972
"2a74d78b51669090f8a6d97909151eda","cs_wg_mon_conf_choice_neg_real1","3VD82FOHKRV15QL9H4OPZ680ALOCOE",4,0,"FEBRUARY",11,"DECEMBER",9,1,1421,NA,NA,NA,NA,0,"2019-06-05 12:14:58",124973
"d6220ba5dd432def120772e2e1454e3c","cs_wg_mon_conf_choice_neg_real1","3EICBYG6453N4FUC1RWKRAREBRECJV",24,0,"MARCH",6,"JANUARY",9,1,937,NA,NA,NA,NA,0,"2019-06-05 12:14:58",124974
"46069a952754aca388d18129bfd46f6d","cs_wg_mon_conf_choice_neg_real1","3IQ1VMJRYURA5OK5V19GWLNNFJHA9W",42,0,"JANUARY",8,"DECEMBER",12,0,186,NA,NA,NA,NA,0,"2019-06-05 12:14:59",124975
"145a21fdb5bafa538b0f19fea5e40b91","cs_wg_mon_conf_choice_neg_real1","3JBT3HLQF99WYJ8KOILCZ4EBT85ZPG",0,0,"AUGUST",7,"JUNE",2,0,5402,NA,NA,NA,NA,0,"2019-06-05 12:14:59",124976
"ef0ab7523742e158ec7d3963b238fdf7","cs_wg_mon_conf_choice_neg_real1","3K772S5NP9I6A7J09IZU5LB2JBNHEO",11,0,"JUNE",6,"MAY",5,1,1535,NA,NA,NA,NA,0,"2019-06-05 12:14:59",124977
"0606a6422ccf8697f3cdaf1ba5938c0e","cs_wg_mon_conf_choice_neg_real1","3HYA4D452SQU1VGEL8GT0ZQ06TK2F9",19,0,"JANUARY",4,"OCTOBER",0,1,1282,NA,NA,NA,NA,0,"2019-06-05 12:14:59",124978
"03b602885b5804bf01afc9a814a19c30","cs_wg_mon_conf_choice_neg_real1","3CTOC39K38XHSYZGAAO9BOZ0AGN7JX",6,0,"MARCH",11,"OCTOBER",-2,0,1222,NA,NA,NA,NA,0,"2019-06-05 12:14:59",124979
"aa1d5b03db0621cc7b9e52f923bd7d41","cs_wg_mon_conf_choice_neg_real1","3QY5DC2MXSR3L7PG4SQZ6ILSPK3UFJ",31,0,"JUNE",6,"FEBRUARY",5,0,200,NA,NA,NA,NA,0,"2019-06-05 12:14:59",124980
"3672ba0dea8ca4c3af20936e2d0f55ae","cs_wg_mon_conf_choice_neg_real1","3U5NZHP4LS9A7Y8QIWF5ZXA6XIPHP9",6,0,"APRIL",9,"JULY",4,1,1026,NA,NA,NA,NA,0,"2019-06-05 12:14:59",124981
"922cdd7a04398b2a20d8a0ea057fef45","cs_wg_mon_conf_choice_neg_real1","3S96KQ6I9NBRNAWVDH5ZDMW5UTHDT1",2,0,"MARCH",8,"JANUARY",4,1,999,NA,NA,NA,NA,0,"2019-06-05 12:14:59",124982
"313d98b69d3d4f352a3ffbef73ba44f9","cs_wg_mon_conf_choice_neg_real1","3OF2M9AATHVVNSB4BQG43NSCZYZZKF",6,0,"DECEMBER",6,"AUGUST",6,0,658,NA,NA,NA,NA,0,"2019-06-05 12:14:59",124983
"46069a952754aca388d18129bfd46f6d","cs_wg_mon_conf_choice_neg_real1","3IQ1VMJRYURA5OK5V19GWLNNFJHA9W",43,0,"APRIL",6,"SEPTEMBER",6,0,84,NA,NA,NA,NA,0,"2019-06-05 12:15:00",124984
"a502708665d7f923db9acd8187705704","cs_wg_mon_conf_choice_neg_real1","3R3YRB5GRGA8PG88TC47SHA1S4RAUN",8,0,"MARCH",9,"JUNE",9,1,2155,NA,NA,NA,NA,0,"2019-06-05 12:15:01",124985
"5528af7ee0e138e557b032194547d5bf","cs_wg_mon_conf_choice_neg_real1","379J5II41PN8W32Q03ESXD490SWELS",7,0,"SEPTEMBER",3,"JULY",10,1,2419,NA,NA,NA,NA,0,"2019-06-05 12:15:01",124986
"aa1d5b03db0621cc7b9e52f923bd7d41","cs_wg_mon_conf_choice_neg_real1","3QY5DC2MXSR3L7PG4SQZ6ILSPK3UFJ",32,0,"MAY",9,"FEBRUARY",3,1,126,NA,NA,NA,NA,0,"2019-06-05 12:15:01",124987
"b007722bc37cd70d10475ac40ecc7b3c","cs_wg_mon_conf_choice_neg_real1","3LUY3GC6307DE92E5NTT8KLCJFT7PX",15,0,"FEBRUARY",7,"SEPTEMBER",6,1,2671,NA,NA,NA,NA,0,"2019-06-05 12:15:01",124988
"97f0244747728f90f985af0f5134c2b6","cs_wg_mon_conf_choice_neg_real1","36NEMU28XGKMJL62LF9DJWQY71RMWI",5,0,"SEPTEMBER",11,"MAY",6,0,1205,NA,NA,NA,NA,0,"2019-06-05 12:15:01",124989
"3672ba0dea8ca4c3af20936e2d0f55ae","cs_wg_mon_conf_choice_neg_real1","3U5NZHP4LS9A7Y8QIWF5ZXA6XIPHP9",7,0,"MAY",0,"MARCH",4,0,430,NA,NA,NA,NA,0,"2019-06-05 12:15:02",124990
"46069a952754aca388d18129bfd46f6d","cs_wg_mon_conf_choice_neg_real1","3IQ1VMJRYURA5OK5V19GWLNNFJHA9W",44,0,"JANUARY",6,"OCTOBER",12,0,187,NA,NA,NA,NA,0,"2019-06-05 12:15:02",124991
"83c0b73c9ab49fec14345a1c6b769ec0","cs_wg_mon_conf_choice_neg_real1","3Z4AIRP3C7K4CWP32YM11NG2IS1X1D",5,0,"AUGUST",6,"JANUARY",9,0,941,NA,NA,NA,NA,0,"2019-06-05 12:15:02",124992
"0606a6422ccf8697f3cdaf1ba5938c0e","cs_wg_mon_conf_choice_neg_real1","3HYA4D452SQU1VGEL8GT0ZQ06TK2F9",20,0,"SEPTEMBER",9,"DECEMBER",15,0,1144,NA,NA,NA,NA,0,"2019-06-05 12:15:02",124993
"ef0ab7523742e158ec7d3963b238fdf7","cs_wg_mon_conf_choice_neg_real1","3K772S5NP9I6A7J09IZU5LB2JBNHEO",12,0,"MARCH",6,"NOVEMBER",8,1,1447,NA,NA,NA,NA,0,"2019-06-05 12:15:02",124994
"4e647d8afe3ad4afee614629541a9bc4","cs_wg_mon_conf_choice_neg_real1","3GA6AFUKOPV30933KYIYMU75SMXH3X",17,0,"MAY",5,"MARCH",-2,1,1922,NA,NA,NA,NA,0,"2019-06-05 12:15:02",124995
"d6220ba5dd432def120772e2e1454e3c","cs_wg_mon_conf_choice_neg_real1","3EICBYG6453N4FUC1RWKRAREBRECJV",25,0,"JULY",14,"MARCH",10,1,1410,NA,NA,NA,NA,0,"2019-06-05 12:15:02",124996
"313d98b69d3d4f352a3ffbef73ba44f9","cs_wg_mon_conf_choice_neg_real1","3OF2M9AATHVVNSB4BQG43NSCZYZZKF",7,0,"JULY",2,"MAY",10,0,1046,NA,NA,NA,NA,0,"2019-06-05 12:15:02",124997
"0ff5151d7b7da476bf93fe077449162f","cs_wg_mon_conf_choice_neg_real1","3HWRJOOET69V0GXGKCBT9ZI4SM4ES6",24,0,"SEPTEMBER",-2,"APRIL",11,1,158,NA,NA,NA,NA,0,"2019-06-05 12:15:02",124998
"01bccaa4dd71661a7bc855c50cc08033","cs_wg_mon_conf_choice_neg_real1","33OOO72IVISHIIQHDLAOTGEN9T5CT0",1,0,"JULY",2,"JANUARY",1,1,4019,NA,NA,NA,NA,0,"2019-06-05 12:15:02",124999
"4ce73caf0540517e6cee3a82ec10425e","cs_wg_mon_conf_choice_neg_real1","3R5F3LQFV3REDJWJ9I8XA49LJ39ZOZ",5,0,"FEBRUARY",11,"JANUARY",2,0,1236,NA,NA,NA,NA,0,"2019-06-05 12:15:02",125000
"aa1d5b03db0621cc7b9e52f923bd7d41","cs_wg_mon_conf_choice_neg_real1","3QY5DC2MXSR3L7PG4SQZ6ILSPK3UFJ",33,0,"AUGUST",6,"SEPTEMBER",4,0,299,NA,NA,NA,NA,0,"2019-06-05 12:15:02",125001
"c6e6b8d0f24a8eca0431fee027778ccf","cs_wg_mon_conf_choice_neg_real1","32AT8R96GMGCPCU2ACQYDH47EAXUS2",7,0,"AUGUST",8,"SEPTEMBER",12,1,1994,NA,NA,NA,NA,0,"2019-06-05 12:15:03",125002
"46069a952754aca388d18129bfd46f6d","cs_wg_mon_conf_choice_neg_real1","3IQ1VMJRYURA5OK5V19GWLNNFJHA9W",45,0,"MAY",7,"JANUARY",10,0,112,NA,NA,NA,NA,0,"2019-06-05 12:15:03",125003
"adcee5ecf15a329d2c6291b5e01d7191","cs_wg_mon_conf_choice_neg_real1","3YGXWBAF71OX1XBRYK9GL82VTUO4CW",3,0,"MAY",5,"OCTOBER",-2,1,2030,NA,NA,NA,NA,0,"2019-06-05 12:15:03",125004
"d9f95e4b4bb24a34da0eaf6b10a60f08","cs_wg_mon_conf_choice_neg_real1","3NXNZ5RS1B4SMMM7OYXWMULXEBB792",6,0,"DECEMBER",3,"JULY",3,0,2615,NA,NA,NA,NA,0,"2019-06-05 12:15:03",125005
"0606a6422ccf8697f3cdaf1ba5938c0e","cs_wg_mon_conf_choice_neg_real1","3HYA4D452SQU1VGEL8GT0ZQ06TK2F9",21,0,"AUGUST",6,"MAY",14,1,888,NA,NA,NA,NA,0,"2019-06-05 12:15:04",125006
"0ff5151d7b7da476bf93fe077449162f","cs_wg_mon_conf_choice_neg_real1","3HWRJOOET69V0GXGKCBT9ZI4SM4ES6",25,0,"JULY",1,"JANUARY",14,1,311,NA,NA,NA,NA,0,"2019-06-05 12:15:04",125007
"2a74d78b51669090f8a6d97909151eda","cs_wg_mon_conf_choice_neg_real1","3VD82FOHKRV15QL9H4OPZ680ALOCOE",5,0,"MARCH",7,"JANUARY",7,0,1553,NA,NA,NA,NA,0,"2019-06-05 12:15:04",125008
"3672ba0dea8ca4c3af20936e2d0f55ae","cs_wg_mon_conf_choice_neg_real1","3U5NZHP4LS9A7Y8QIWF5ZXA6XIPHP9",8,0,"JULY",9,"OCTOBER",7,0,432,NA,NA,NA,NA,0,"2019-06-05 12:15:04",125009
"d6220ba5dd432def120772e2e1454e3c","cs_wg_mon_conf_choice_neg_real1","3EICBYG6453N4FUC1RWKRAREBRECJV",26,0,"AUGUST",7,"APRIL",3,1,778,NA,NA,NA,NA,0,"2019-06-05 12:15:04",125010
"aa1d5b03db0621cc7b9e52f923bd7d41","cs_wg_mon_conf_choice_neg_real1","3QY5DC2MXSR3L7PG4SQZ6ILSPK3UFJ",34,0,"NOVEMBER",1,"AUGUST",5,0,315,NA,NA,NA,NA,0,"2019-06-05 12:15:04",125011
"a502708665d7f923db9acd8187705704","cs_wg_mon_conf_choice_neg_real1","3R3YRB5GRGA8PG88TC47SHA1S4RAUN",9,0,"NOVEMBER",5,"APRIL",4,0,1828,NA,NA,NA,NA,0,"2019-06-05 12:15:04",125012
"a9c0956b473f3faeda6bbaf2cbac32a1","cs_wg_mon_conf_choice_neg_real1","3OVR4I9USQQ1VYLA32AB5DRCX9P4Q1",0,0,"AUGUST",8,"NOVEMBER",7,0,10443,NA,NA,NA,NA,0,"2019-06-05 12:15:04",125013
"03b602885b5804bf01afc9a814a19c30","cs_wg_mon_conf_choice_neg_real1","3CTOC39K38XHSYZGAAO9BOZ0AGN7JX",7,0,"JANUARY",-1,"MARCH",10,1,2289,NA,NA,NA,NA,0,"2019-06-05 12:15:04",125014
"83c0b73c9ab49fec14345a1c6b769ec0","cs_wg_mon_conf_choice_neg_real1","3Z4AIRP3C7K4CWP32YM11NG2IS1X1D",6,0,"JULY",4,"MAY",1,0,854,NA,NA,NA,NA,0,"2019-06-05 12:15:04",125015
"b007722bc37cd70d10475ac40ecc7b3c","cs_wg_mon_conf_choice_neg_real1","3LUY3GC6307DE92E5NTT8KLCJFT7PX",16,0,"SEPTEMBER",6,"OCTOBER",11,1,1681,NA,NA,NA,NA,0,"2019-06-05 12:15:04",125016
"46069a952754aca388d18129bfd46f6d","cs_wg_mon_conf_choice_neg_real1","3IQ1VMJRYURA5OK5V19GWLNNFJHA9W",46,0,"NOVEMBER",6,"DECEMBER",12,0,181,NA,NA,NA,NA,0,"2019-06-05 12:15:05",125017
"313d98b69d3d4f352a3ffbef73ba44f9","cs_wg_mon_conf_choice_neg_real1","3OF2M9AATHVVNSB4BQG43NSCZYZZKF",8,0,"NOVEMBER",0,"APRIL",3,0,1417,NA,NA,NA,NA,0,"2019-06-05 12:15:05",125018
"922cdd7a04398b2a20d8a0ea057fef45","cs_wg_mon_conf_choice_neg_real1","3S96KQ6I9NBRNAWVDH5ZDMW5UTHDT1",3,0,"JANUARY",5,"OCTOBER",12,0,2061,NA,NA,NA,NA,0,"2019-06-05 12:15:05",125019
"7beae255fd7d34f1cbf5d3515d72128b","cs_wg_mon_conf_choice_neg_real1","39ASUFLU6YE3WXJFEMHG87ZW716EXE",2,0,"MARCH",7,"OCTOBER",11,1,3061,NA,NA,NA,NA,0,"2019-06-05 12:15:05",125020
"4e647d8afe3ad4afee614629541a9bc4","cs_wg_mon_conf_choice_neg_real1","3GA6AFUKOPV30933KYIYMU75SMXH3X",18,0,"OCTOBER",6,"MARCH",2,0,1966,NA,NA,NA,NA,0,"2019-06-05 12:15:05",125021
"4ce73caf0540517e6cee3a82ec10425e","cs_wg_mon_conf_choice_neg_real1","3R5F3LQFV3REDJWJ9I8XA49LJ39ZOZ",6,0,"JUNE",4,"MARCH",15,0,1478,NA,NA,NA,NA,0,"2019-06-05 12:15:06",125022
"ef0ab7523742e158ec7d3963b238fdf7","cs_wg_mon_conf_choice_neg_real1","3K772S5NP9I6A7J09IZU5LB2JBNHEO",13,0,"SEPTEMBER",11,"APRIL",-1,0,1232,NA,NA,NA,NA,0,"2019-06-05 12:15:06",125023
"5528af7ee0e138e557b032194547d5bf","cs_wg_mon_conf_choice_neg_real1","379J5II41PN8W32Q03ESXD490SWELS",8,0,"AUGUST",6,"JANUARY",3,1,2795,NA,NA,NA,NA,0,"2019-06-05 12:15:06",125024
"aa1d5b03db0621cc7b9e52f923bd7d41","cs_wg_mon_conf_choice_neg_real1","3QY5DC2MXSR3L7PG4SQZ6ILSPK3UFJ",35,0,"AUGUST",7,"DECEMBER",0,1,198,NA,NA,NA,NA,0,"2019-06-05 12:15:06",125025
"0ff5151d7b7da476bf93fe077449162f","cs_wg_mon_conf_choice_neg_real1","3HWRJOOET69V0GXGKCBT9ZI4SM4ES6",26,0,"JUNE",3,"JANUARY",14,0,375,NA,NA,NA,NA,0,"2019-06-05 12:15:06",125026
"46069a952754aca388d18129bfd46f6d","cs_wg_mon_conf_choice_neg_real1","3IQ1VMJRYURA5OK5V19GWLNNFJHA9W",47,0,"JULY",1,"AUGUST",1,0,193,NA,NA,NA,NA,0,"2019-06-05 12:15:06",125027
"97f0244747728f90f985af0f5134c2b6","cs_wg_mon_conf_choice_neg_real1","36NEMU28XGKMJL62LF9DJWQY71RMWI",6,0,"APRIL",2,"AUGUST",7,0,2561,NA,NA,NA,NA,0,"2019-06-05 12:15:06",125028
"3672ba0dea8ca4c3af20936e2d0f55ae","cs_wg_mon_conf_choice_neg_real1","3U5NZHP4LS9A7Y8QIWF5ZXA6XIPHP9",9,0,"AUGUST",3,"OCTOBER",1,0,412,NA,NA,NA,NA,0,"2019-06-05 12:15:06",125029
"0606a6422ccf8697f3cdaf1ba5938c0e","cs_wg_mon_conf_choice_neg_real1","3HYA4D452SQU1VGEL8GT0ZQ06TK2F9",22,0,"AUGUST",6,"MARCH",7,0,1211,NA,NA,NA,NA,0,"2019-06-05 12:15:07",125030
"9b1544bef9f96d79a951810764453784","cs_wg_mon_conf_choice_neg_real1","3JC6VJ2SACQR41ITSBWZK5ILTNYA55",0,0,"SEPTEMBER",12,"APRIL",8,1,3863,NA,NA,NA,NA,0,"2019-06-05 12:15:07",125031
"313d98b69d3d4f352a3ffbef73ba44f9","cs_wg_mon_conf_choice_neg_real1","3OF2M9AATHVVNSB4BQG43NSCZYZZKF",9,0,"NOVEMBER",0,"AUGUST",6,0,342,NA,NA,NA,NA,0,"2019-06-05 12:15:07",125032
"acb9811940a7f4e9730d36be0a30e7fc","cs_wg_mon_conf_choice_neg_real1","38JBBYETQPHCYVV5UBFBBW2YE614EP",0,0,"MARCH",3,"AUGUST",3,0,5996,NA,NA,NA,NA,0,"2019-06-05 12:15:07",125033
"d6220ba5dd432def120772e2e1454e3c","cs_wg_mon_conf_choice_neg_real1","3EICBYG6453N4FUC1RWKRAREBRECJV",27,0,"AUGUST",10,"SEPTEMBER",4,0,1105,NA,NA,NA,NA,0,"2019-06-05 12:15:07",125034
"c6e6b8d0f24a8eca0431fee027778ccf","cs_wg_mon_conf_choice_neg_real1","32AT8R96GMGCPCU2ACQYDH47EAXUS2",8,0,"APRIL",12,"JANUARY",-1,0,2452,NA,NA,NA,NA,0,"2019-06-05 12:15:07",125035
"83c0b73c9ab49fec14345a1c6b769ec0","cs_wg_mon_conf_choice_neg_real1","3Z4AIRP3C7K4CWP32YM11NG2IS1X1D",7,0,"NOVEMBER",8,"JANUARY",8,1,1003,NA,NA,NA,NA,0,"2019-06-05 12:15:07",125036
"a502708665d7f923db9acd8187705704","cs_wg_mon_conf_choice_neg_real1","3R3YRB5GRGA8PG88TC47SHA1S4RAUN",10,0,"AUGUST",6,"NOVEMBER",5,1,1666,NA,NA,NA,NA,0,"2019-06-05 12:15:08",125037
"65c24d0990f2c00efdeb0eda1a720966","cs_wg_mon_conf_choice_neg_real1","3WRFBPLXRBVVA5PENWDBRE41EY6N3C",0,0,"AUGUST",11,"DECEMBER",6,1,6107,NA,NA,NA,NA,0,"2019-06-05 12:15:08",125038
"46069a952754aca388d18129bfd46f6d","cs_wg_mon_conf_choice_neg_real1","3IQ1VMJRYURA5OK5V19GWLNNFJHA9W",48,0,"JULY",2,"APRIL",4,0,235,NA,NA,NA,NA,0,"2019-06-05 12:15:08",125039
"b007722bc37cd70d10475ac40ecc7b3c","cs_wg_mon_conf_choice_neg_real1","3LUY3GC6307DE92E5NTT8KLCJFT7PX",17,0,"MARCH",2,"JULY",4,0,1764,NA,NA,NA,NA,0,"2019-06-05 12:15:08",125040
"145a21fdb5bafa538b0f19fea5e40b91","cs_wg_mon_conf_choice_neg_real1","3JBT3HLQF99WYJ8KOILCZ4EBT85ZPG",1,0,"NOVEMBER",0,"AUGUST",14,1,4210,NA,NA,NA,NA,0,"2019-06-05 12:15:08",125041
"ef0ab7523742e158ec7d3963b238fdf7","cs_wg_mon_conf_choice_neg_real1","3K772S5NP9I6A7J09IZU5LB2JBNHEO",14,0,"APRIL",6,"SEPTEMBER",12,1,1302,NA,NA,NA,NA,0,"2019-06-05 12:15:08",125042
"01bccaa4dd71661a7bc855c50cc08033","cs_wg_mon_conf_choice_neg_real1","33OOO72IVISHIIQHDLAOTGEN9T5CT0",2,0,"MAY",3,"JANUARY",1,0,3466,NA,NA,NA,NA,0,"2019-06-05 12:15:08",125043
"adcee5ecf15a329d2c6291b5e01d7191","cs_wg_mon_conf_choice_neg_real1","3YGXWBAF71OX1XBRYK9GL82VTUO4CW",4,0,"MARCH",6,"AUGUST",10,1,1924,NA,NA,NA,NA,0,"2019-06-05 12:15:08",125044
"aa1d5b03db0621cc7b9e52f923bd7d41","cs_wg_mon_conf_choice_neg_real1","3QY5DC2MXSR3L7PG4SQZ6ILSPK3UFJ",36,0,"DECEMBER",1,"JUNE",2,1,779,NA,NA,NA,NA,0,"2019-06-05 12:15:08",125045
"03b602885b5804bf01afc9a814a19c30","cs_wg_mon_conf_choice_neg_real1","3CTOC39K38XHSYZGAAO9BOZ0AGN7JX",8,0,"JUNE",11,"JULY",3,0,1795,NA,NA,NA,NA,0,"2019-06-05 12:15:08",125046
"313d98b69d3d4f352a3ffbef73ba44f9","cs_wg_mon_conf_choice_neg_real1","3OF2M9AATHVVNSB4BQG43NSCZYZZKF",10,0,"NOVEMBER",2,"DECEMBER",5,1,334,NA,NA,NA,NA,0,"2019-06-05 12:15:09",125047
"3672ba0dea8ca4c3af20936e2d0f55ae","cs_wg_mon_conf_choice_neg_real1","3U5NZHP4LS9A7Y8QIWF5ZXA6XIPHP9",10,0,"NOVEMBER",9,"JANUARY",3,1,313,NA,NA,NA,NA,0,"2019-06-05 12:15:09",125048
"2a74d78b51669090f8a6d97909151eda","cs_wg_mon_conf_choice_neg_real1","3VD82FOHKRV15QL9H4OPZ680ALOCOE",6,0,"AUGUST",11,"JANUARY",9,1,2118,NA,NA,NA,NA,0,"2019-06-05 12:15:09",125049
"5528af7ee0e138e557b032194547d5bf","cs_wg_mon_conf_choice_neg_real1","379J5II41PN8W32Q03ESXD490SWELS",9,0,"NOVEMBER",7,"SEPTEMBER",8,1,1084,NA,NA,NA,NA,0,"2019-06-05 12:15:09",125051
"0606a6422ccf8697f3cdaf1ba5938c0e","cs_wg_mon_conf_choice_neg_real1","3HYA4D452SQU1VGEL8GT0ZQ06TK2F9",23,0,"JULY",3,"OCTOBER",2,1,1052,NA,NA,NA,NA,0,"2019-06-05 12:15:09",125050
"7beae255fd7d34f1cbf5d3515d72128b","cs_wg_mon_conf_choice_neg_real1","39ASUFLU6YE3WXJFEMHG87ZW716EXE",3,0,"NOVEMBER",10,"MAY",10,0,2129,NA,NA,NA,NA,0,"2019-06-05 12:15:09",125052
"d9f95e4b4bb24a34da0eaf6b10a60f08","cs_wg_mon_conf_choice_neg_real1","3NXNZ5RS1B4SMMM7OYXWMULXEBB792",7,0,"MAY",0,"OCTOBER",8,0,2918,NA,NA,NA,NA,0,"2019-06-05 12:15:09",125053
"46069a952754aca388d18129bfd46f6d","cs_wg_mon_conf_choice_neg_real1","3IQ1VMJRYURA5OK5V19GWLNNFJHA9W",49,0,"DECEMBER",10,"JANUARY",7,0,208,NA,NA,NA,NA,0,"2019-06-05 12:15:09",125054
"4e647d8afe3ad4afee614629541a9bc4","cs_wg_mon_conf_choice_neg_real1","3GA6AFUKOPV30933KYIYMU75SMXH3X",19,0,"DECEMBER",9,"APRIL",6,0,2157,NA,NA,NA,NA,0,"2019-06-05 12:15:09",125055
"d6220ba5dd432def120772e2e1454e3c","cs_wg_mon_conf_choice_neg_real1","3EICBYG6453N4FUC1RWKRAREBRECJV",28,0,"AUGUST",8,"NOVEMBER",3,0,993,NA,NA,NA,NA,0,"2019-06-05 12:15:09",125056
"792de444e782773689cfe01b3b4b1748","cs_wg_mon_conf_choice_neg_real1","354P56DE9LAAR1I6X4XN3PQN6Z07SD",0,0,"AUGUST",5,"SEPTEMBER",-1,0,4746,NA,NA,NA,NA,0,"2019-06-05 12:15:10",125057
"4ce73caf0540517e6cee3a82ec10425e","cs_wg_mon_conf_choice_neg_real1","3R5F3LQFV3REDJWJ9I8XA49LJ39ZOZ",7,0,"AUGUST",10,"APRIL",10,0,1711,NA,NA,NA,NA,0,"2019-06-05 12:15:10",125058
"922cdd7a04398b2a20d8a0ea057fef45","cs_wg_mon_conf_choice_neg_real1","3S96KQ6I9NBRNAWVDH5ZDMW5UTHDT1",4,0,"DECEMBER",11,"SEPTEMBER",5,0,2145,NA,NA,NA,NA,0,"2019-06-05 12:15:10",125059
"313d98b69d3d4f352a3ffbef73ba44f9","cs_wg_mon_conf_choice_neg_real1","3OF2M9AATHVVNSB4BQG43NSCZYZZKF",11,0,"MAY",12,"OCTOBER",9,0,238,NA,NA,NA,NA,0,"2019-06-05 12:15:10",125060
"97f0244747728f90f985af0f5134c2b6","cs_wg_mon_conf_choice_neg_real1","36NEMU28XGKMJL62LF9DJWQY71RMWI",7,0,"FEBRUARY",8,"SEPTEMBER",13,1,1372,NA,NA,NA,NA,0,"2019-06-05 12:15:10",125061
"acb9811940a7f4e9730d36be0a30e7fc","cs_wg_mon_conf_choice_neg_real1","38JBBYETQPHCYVV5UBFBBW2YE614EP",1,0,"FEBRUARY",10,"JANUARY",8,0,1082,NA,NA,NA,NA,0,"2019-06-05 12:15:10",125062
"83c0b73c9ab49fec14345a1c6b769ec0","cs_wg_mon_conf_choice_neg_real1","3Z4AIRP3C7K4CWP32YM11NG2IS1X1D",8,0,"JULY",3,"AUGUST",9,0,889,NA,NA,NA,NA,0,"2019-06-05 12:15:10",125063
"aa1d5b03db0621cc7b9e52f923bd7d41","cs_wg_mon_conf_choice_neg_real1","3QY5DC2MXSR3L7PG4SQZ6ILSPK3UFJ",37,0,"AUGUST",9,"JANUARY",10,0,560,NA,NA,NA,NA,0,"2019-06-05 12:15:11",125064
"46069a952754aca388d18129bfd46f6d","cs_wg_mon_conf_choice_neg_real1","3IQ1VMJRYURA5OK5V19GWLNNFJHA9W",50,0,"NOVEMBER",5,"JANUARY",9,0,177,NA,NA,NA,NA,0,"2019-06-05 12:15:11",125065
"3672ba0dea8ca4c3af20936e2d0f55ae","cs_wg_mon_conf_choice_neg_real1","3U5NZHP4LS9A7Y8QIWF5ZXA6XIPHP9",11,0,"DECEMBER",2,"MARCH",9,0,326,NA,NA,NA,NA,0,"2019-06-05 12:15:11",125066
"0606a6422ccf8697f3cdaf1ba5938c0e","cs_wg_mon_conf_choice_neg_real1","3HYA4D452SQU1VGEL8GT0ZQ06TK2F9",24,0,"JANUARY",0,"JULY",13,0,640,NA,NA,NA,NA,0,"2019-06-05 12:15:11",125067
"ef0ab7523742e158ec7d3963b238fdf7","cs_wg_mon_conf_choice_neg_real1","3K772S5NP9I6A7J09IZU5LB2JBNHEO",15,0,"JANUARY",-1,"NOVEMBER",7,1,1252,NA,NA,NA,NA,0,"2019-06-05 12:15:11",125068
"a502708665d7f923db9acd8187705704","cs_wg_mon_conf_choice_neg_real1","3R3YRB5GRGA8PG88TC47SHA1S4RAUN",11,0,"JUNE",11,"AUGUST",6,0,1651,NA,NA,NA,NA,0,"2019-06-05 12:15:11",125069
"313d98b69d3d4f352a3ffbef73ba44f9","cs_wg_mon_conf_choice_neg_real1","3OF2M9AATHVVNSB4BQG43NSCZYZZKF",12,0,"MARCH",11,"JANUARY",1,1,38,NA,NA,NA,NA,0,"2019-06-05 12:15:12",125070
"03b602885b5804bf01afc9a814a19c30","cs_wg_mon_conf_choice_neg_real1","3CTOC39K38XHSYZGAAO9BOZ0AGN7JX",9,0,"JUNE",12,"NOVEMBER",4,0,1039,NA,NA,NA,NA,0,"2019-06-05 12:15:12",125071
"c6e6b8d0f24a8eca0431fee027778ccf","cs_wg_mon_conf_choice_neg_real1","32AT8R96GMGCPCU2ACQYDH47EAXUS2",9,0,"DECEMBER",6,"JANUARY",5,0,2163,NA,NA,NA,NA,0,"2019-06-05 12:15:12",125072
"d6220ba5dd432def120772e2e1454e3c","cs_wg_mon_conf_choice_neg_real1","3EICBYG6453N4FUC1RWKRAREBRECJV",29,0,"OCTOBER",10,"AUGUST",4,1,784,NA,NA,NA,NA,0,"2019-06-05 12:15:12",125073
"9b1544bef9f96d79a951810764453784","cs_wg_mon_conf_choice_neg_real1","3JC6VJ2SACQR41ITSBWZK5ILTNYA55",1,0,"MAY",4,"JANUARY",9,0,2822,NA,NA,NA,NA,0,"2019-06-05 12:15:12",125074
"5528af7ee0e138e557b032194547d5bf","cs_wg_mon_conf_choice_neg_real1","379J5II41PN8W32Q03ESXD490SWELS",10,0,"MAY",5,"FEBRUARY",11,1,1056,NA,NA,NA,NA,0,"2019-06-05 12:15:12",125075
"aa1d5b03db0621cc7b9e52f923bd7d41","cs_wg_mon_conf_choice_neg_real1","3QY5DC2MXSR3L7PG4SQZ6ILSPK3UFJ",38,0,"AUGUST",5,"MARCH",10,1,296,NA,NA,NA,NA,0,"2019-06-05 12:15:12",125076
"46069a952754aca388d18129bfd46f6d","cs_wg_mon_conf_choice_neg_real1","3IQ1VMJRYURA5OK5V19GWLNNFJHA9W",51,0,"DECEMBER",10,"OCTOBER",11,0,95,NA,NA,NA,NA,0,"2019-06-05 12:15:12",125077
"b007722bc37cd70d10475ac40ecc7b3c","cs_wg_mon_conf_choice_neg_real1","3LUY3GC6307DE92E5NTT8KLCJFT7PX",18,0,"APRIL",11,"JULY",1,0,2295,NA,NA,NA,NA,0,"2019-06-05 12:15:12",125078
"adcee5ecf15a329d2c6291b5e01d7191","cs_wg_mon_conf_choice_neg_real1","3YGXWBAF71OX1XBRYK9GL82VTUO4CW",5,0,"AUGUST",6,"JUNE",6,0,1191,NA,NA,NA,NA,0,"2019-06-05 12:15:13",125079
"0606a6422ccf8697f3cdaf1ba5938c0e","cs_wg_mon_conf_choice_neg_real1","3HYA4D452SQU1VGEL8GT0ZQ06TK2F9",25,0,"OCTOBER",1,"JUNE",5,0,434,NA,NA,NA,NA,0,"2019-06-05 12:15:13",125080
"d5062a49bf0db1c385c0f222ebb4ba67","cs_wg_mon_conf_choice_neg_real1","3XUHV3NRVL56EOQ7YH6R1R5P6IO5HB",0,0,"MARCH",10,"JANUARY",5,1,2181,NA,NA,NA,NA,0,"2019-06-05 12:15:13",125081
"7beae255fd7d34f1cbf5d3515d72128b","cs_wg_mon_conf_choice_neg_real1","39ASUFLU6YE3WXJFEMHG87ZW716EXE",4,0,"AUGUST",6,"DECEMBER",8,1,1506,NA,NA,NA,NA,0,"2019-06-05 12:15:13",125082
"4e647d8afe3ad4afee614629541a9bc4","cs_wg_mon_conf_choice_neg_real1","3GA6AFUKOPV30933KYIYMU75SMXH3X",20,0,"JUNE",4,"MAY",8,1,2015,NA,NA,NA,NA,0,"2019-06-05 12:15:13",125083
"acb9811940a7f4e9730d36be0a30e7fc","cs_wg_mon_conf_choice_neg_real1","38JBBYETQPHCYVV5UBFBBW2YE614EP",2,0,"AUGUST",1,"FEBRUARY",13,0,715,NA,NA,NA,NA,0,"2019-06-05 12:15:13",125084
"83c0b73c9ab49fec14345a1c6b769ec0","cs_wg_mon_conf_choice_neg_real1","3Z4AIRP3C7K4CWP32YM11NG2IS1X1D",9,0,"DECEMBER",6,"JULY",4,1,1124,NA,NA,NA,NA,0,"2019-06-05 12:15:13",125085
"4ce73caf0540517e6cee3a82ec10425e","cs_wg_mon_conf_choice_neg_real1","3R5F3LQFV3REDJWJ9I8XA49LJ39ZOZ",8,0,"DECEMBER",2,"APRIL",9,0,1781,NA,NA,NA,NA,0,"2019-06-05 12:15:13",125086
"d9f95e4b4bb24a34da0eaf6b10a60f08","cs_wg_mon_conf_choice_neg_real1","3NXNZ5RS1B4SMMM7OYXWMULXEBB792",8,0,"SEPTEMBER",13,"JANUARY",11,1,1992,NA,NA,NA,NA,0,"2019-06-05 12:15:14",125087
"3672ba0dea8ca4c3af20936e2d0f55ae","cs_wg_mon_conf_choice_neg_real1","3U5NZHP4LS9A7Y8QIWF5ZXA6XIPHP9",12,0,"SEPTEMBER",12,"DECEMBER",8,1,250,NA,NA,NA,NA,0,"2019-06-05 12:15:14",125088
"ef0ab7523742e158ec7d3963b238fdf7","cs_wg_mon_conf_choice_neg_real1","3K772S5NP9I6A7J09IZU5LB2JBNHEO",16,0,"MARCH",7,"AUGUST",8,1,1191,NA,NA,NA,NA,0,"2019-06-05 12:15:14",125089
"313d98b69d3d4f352a3ffbef73ba44f9","cs_wg_mon_conf_choice_neg_real1","3OF2M9AATHVVNSB4BQG43NSCZYZZKF",13,0,"JUNE",13,"APRIL",0,0,439,NA,NA,NA,NA,0,"2019-06-05 12:15:14",125090
"a502708665d7f923db9acd8187705704","cs_wg_mon_conf_choice_neg_real1","3R3YRB5GRGA8PG88TC47SHA1S4RAUN",12,0,"MAY",12,"JULY",11,0,938,NA,NA,NA,NA,0,"2019-06-05 12:15:14",125091
"01bccaa4dd71661a7bc855c50cc08033","cs_wg_mon_conf_choice_neg_real1","33OOO72IVISHIIQHDLAOTGEN9T5CT0",3,0,"OCTOBER",4,"APRIL",8,0,2008,NA,NA,NA,NA,0,"2019-06-05 12:15:14",125092
"97f0244747728f90f985af0f5134c2b6","cs_wg_mon_conf_choice_neg_real1","36NEMU28XGKMJL62LF9DJWQY71RMWI",8,0,"AUGUST",3,"JULY",1,0,1428,NA,NA,NA,NA,0,"2019-06-05 12:15:14",125093
"aa1d5b03db0621cc7b9e52f923bd7d41","cs_wg_mon_conf_choice_neg_real1","3QY5DC2MXSR3L7PG4SQZ6ILSPK3UFJ",39,0,"SEPTEMBER",5,"NOVEMBER",5,1,271,NA,NA,NA,NA,0,"2019-06-05 12:15:14",125094
"46069a952754aca388d18129bfd46f6d","cs_wg_mon_conf_choice_neg_real1","3IQ1VMJRYURA5OK5V19GWLNNFJHA9W",52,0,"JUNE",11,"DECEMBER",8,0,232,NA,NA,NA,NA,0,"2019-06-05 12:15:14",125095
"922cdd7a04398b2a20d8a0ea057fef45","cs_wg_mon_conf_choice_neg_real1","3S96KQ6I9NBRNAWVDH5ZDMW5UTHDT1",5,0,"NOVEMBER",16,"JULY",5,0,1519,NA,NA,NA,NA,0,"2019-06-05 12:15:14",125096
"65c24d0990f2c00efdeb0eda1a720966","cs_wg_mon_conf_choice_neg_real1","3WRFBPLXRBVVA5PENWDBRE41EY6N3C",1,0,"APRIL",-1,"JANUARY",7,0,1276,NA,NA,NA,NA,0,"2019-06-05 12:15:15",125097
"d6220ba5dd432def120772e2e1454e3c","cs_wg_mon_conf_choice_neg_real1","3EICBYG6453N4FUC1RWKRAREBRECJV",30,0,"SEPTEMBER",8,"FEBRUARY",8,1,1090,NA,NA,NA,NA,0,"2019-06-05 12:15:15",125098
"0606a6422ccf8697f3cdaf1ba5938c0e","cs_wg_mon_conf_choice_neg_real1","3HYA4D452SQU1VGEL8GT0ZQ06TK2F9",26,0,"SEPTEMBER",6,"JANUARY",7,0,580,NA,NA,NA,NA,0,"2019-06-05 12:15:15",125099
"2a74d78b51669090f8a6d97909151eda","cs_wg_mon_conf_choice_neg_real1","3VD82FOHKRV15QL9H4OPZ680ALOCOE",7,0,"SEPTEMBER",4,"MARCH",7,0,1785,NA,NA,NA,NA,0,"2019-06-05 12:15:15",125100
"b007722bc37cd70d10475ac40ecc7b3c","cs_wg_mon_conf_choice_neg_real1","3LUY3GC6307DE92E5NTT8KLCJFT7PX",19,0,"JUNE",6,"JULY",2,0,1198,NA,NA,NA,NA,0,"2019-06-05 12:15:15",125101
"03b602885b5804bf01afc9a814a19c30","cs_wg_mon_conf_choice_neg_real1","3CTOC39K38XHSYZGAAO9BOZ0AGN7JX",10,0,"MAY",9,"DECEMBER",8,0,1039,NA,NA,NA,NA,0,"2019-06-05 12:15:15",125102
"46069a952754aca388d18129bfd46f6d","cs_wg_mon_conf_choice_neg_real1","3IQ1VMJRYURA5OK5V19GWLNNFJHA9W",53,0,"MARCH",1,"SEPTEMBER",8,0,49,NA,NA,NA,NA,0,"2019-06-05 12:15:16",125103
"d5062a49bf0db1c385c0f222ebb4ba67","cs_wg_mon_conf_choice_neg_real1","3XUHV3NRVL56EOQ7YH6R1R5P6IO5HB",1,0,"AUGUST",11,"SEPTEMBER",10,0,501,NA,NA,NA,NA,0,"2019-06-05 12:15:16",125104
"acb9811940a7f4e9730d36be0a30e7fc","cs_wg_mon_conf_choice_neg_real1","38JBBYETQPHCYVV5UBFBBW2YE614EP",3,0,"MARCH",1,"DECEMBER",3,0,453,NA,NA,NA,NA,0,"2019-06-05 12:15:16",125105
"a9c0956b473f3faeda6bbaf2cbac32a1","cs_wg_mon_conf_choice_neg_real1","3OVR4I9USQQ1VYLA32AB5DRCX9P4Q1",1,0,"DECEMBER",13,"SEPTEMBER",5,0,3675,NA,NA,NA,NA,0,"2019-06-05 12:15:16",125106
"aa1d5b03db0621cc7b9e52f923bd7d41","cs_wg_mon_conf_choice_neg_real1","3QY5DC2MXSR3L7PG4SQZ6ILSPK3UFJ",40,0,"AUGUST",9,"JULY",10,1,448,NA,NA,NA,NA,0,"2019-06-05 12:15:16",125107
"313d98b69d3d4f352a3ffbef73ba44f9","cs_wg_mon_conf_choice_neg_real1","3OF2M9AATHVVNSB4BQG43NSCZYZZKF",14,0,"FEBRUARY",8,"MAY",10,0,662,NA,NA,NA,NA,0,"2019-06-05 12:15:16",125108
"3672ba0dea8ca4c3af20936e2d0f55ae","cs_wg_mon_conf_choice_neg_real1","3U5NZHP4LS9A7Y8QIWF5ZXA6XIPHP9",13,0,"JULY",13,"DECEMBER",5,0,488,NA,NA,NA,NA,0,"2019-06-05 12:15:16",125109
"83c0b73c9ab49fec14345a1c6b769ec0","cs_wg_mon_conf_choice_neg_real1","3Z4AIRP3C7K4CWP32YM11NG2IS1X1D",10,0,"APRIL",11,"OCTOBER",-2,1,850,NA,NA,NA,NA,0,"2019-06-05 12:15:16",125110
"145a21fdb5bafa538b0f19fea5e40b91","cs_wg_mon_conf_choice_neg_real1","3JBT3HLQF99WYJ8KOILCZ4EBT85ZPG",2,0,"JUNE",4,"JANUARY",4,0,4318,NA,NA,NA,NA,0,"2019-06-05 12:15:16",125111
"792de444e782773689cfe01b3b4b1748","cs_wg_mon_conf_choice_neg_real1","354P56DE9LAAR1I6X4XN3PQN6Z07SD",1,0,"MARCH",5,"DECEMBER",9,1,4575,NA,NA,NA,NA,0,"2019-06-05 12:15:16",125112
"5528af7ee0e138e557b032194547d5bf","cs_wg_mon_conf_choice_neg_real1","379J5II41PN8W32Q03ESXD490SWELS",11,0,"FEBRUARY",13,"SEPTEMBER",6,1,2034,NA,NA,NA,NA,0,"2019-06-05 12:15:17",125113
"7beae255fd7d34f1cbf5d3515d72128b","cs_wg_mon_conf_choice_neg_real1","39ASUFLU6YE3WXJFEMHG87ZW716EXE",5,0,"FEBRUARY",6,"DECEMBER",7,1,1341,NA,NA,NA,NA,0,"2019-06-05 12:15:17",125114
"4ce73caf0540517e6cee3a82ec10425e","cs_wg_mon_conf_choice_neg_real1","3R5F3LQFV3REDJWJ9I8XA49LJ39ZOZ",9,0,"SEPTEMBER",6,"MAY",15,1,1243,NA,NA,NA,NA,0,"2019-06-05 12:15:17",125115
"0606a6422ccf8697f3cdaf1ba5938c0e","cs_wg_mon_conf_choice_neg_real1","3HYA4D452SQU1VGEL8GT0ZQ06TK2F9",27,0,"APRIL",1,"JANUARY",2,0,627,NA,NA,NA,NA,0,"2019-06-05 12:15:17",125116
"a502708665d7f923db9acd8187705704","cs_wg_mon_conf_choice_neg_real1","3R3YRB5GRGA8PG88TC47SHA1S4RAUN",13,0,"AUGUST",9,"OCTOBER",12,1,1322,NA,NA,NA,NA,0,"2019-06-05 12:15:17",125117
"c6e6b8d0f24a8eca0431fee027778ccf","cs_wg_mon_conf_choice_neg_real1","32AT8R96GMGCPCU2ACQYDH47EAXUS2",10,0,"JUNE",8,"OCTOBER",5,0,2265,NA,NA,NA,NA,0,"2019-06-05 12:15:17",125118
"9b1544bef9f96d79a951810764453784","cs_wg_mon_conf_choice_neg_real1","3JC6VJ2SACQR41ITSBWZK5ILTNYA55",2,0,"APRIL",11,"NOVEMBER",12,0,1790,NA,NA,NA,NA,0,"2019-06-05 12:15:17",125119
"46069a952754aca388d18129bfd46f6d","cs_wg_mon_conf_choice_neg_real1","3IQ1VMJRYURA5OK5V19GWLNNFJHA9W",54,0,"AUGUST",2,"DECEMBER",11,0,94,NA,NA,NA,NA,0,"2019-06-05 12:15:17",125120
"97f0244747728f90f985af0f5134c2b6","cs_wg_mon_conf_choice_neg_real1","36NEMU28XGKMJL62LF9DJWQY71RMWI",9,0,"JULY",0,"AUGUST",6,1,1234,NA,NA,NA,NA,0,"2019-06-05 12:15:17",125121
"d6220ba5dd432def120772e2e1454e3c","cs_wg_mon_conf_choice_neg_real1","3EICBYG6453N4FUC1RWKRAREBRECJV",31,0,"MAY",7,"APRIL",5,1,785,NA,NA,NA,NA,0,"2019-06-05 12:15:17",125122
"01f9c492df46b84d0e30a2551492afaf","cs_wg_mon_conf_choice_neg_real1","3GGAI1SQEW5D5N0X4O9C72JVFL9CMZ",0,0,"JANUARY",-1,"NOVEMBER",4,1,11417,NA,NA,NA,NA,0,"2019-06-05 12:15:17",125123
"4e647d8afe3ad4afee614629541a9bc4","cs_wg_mon_conf_choice_neg_real1","3GA6AFUKOPV30933KYIYMU75SMXH3X",21,0,"FEBRUARY",1,"DECEMBER",9,0,1990,NA,NA,NA,NA,0,"2019-06-05 12:15:17",125124
"adcee5ecf15a329d2c6291b5e01d7191","cs_wg_mon_conf_choice_neg_real1","3YGXWBAF71OX1XBRYK9GL82VTUO4CW",6,0,"MAY",6,"MARCH",7,1,1571,NA,NA,NA,NA,0,"2019-06-05 12:15:18",125125
"aa1d5b03db0621cc7b9e52f923bd7d41","cs_wg_mon_conf_choice_neg_real1","3QY5DC2MXSR3L7PG4SQZ6ILSPK3UFJ",41,0,"OCTOBER",11,"JULY",12,0,300,NA,NA,NA,NA,0,"2019-06-05 12:15:18",125126
"d9f95e4b4bb24a34da0eaf6b10a60f08","cs_wg_mon_conf_choice_neg_real1","3NXNZ5RS1B4SMMM7OYXWMULXEBB792",9,0,"JULY",5,"MARCH",4,1,1813,NA,NA,NA,NA,0,"2019-06-05 12:15:18",125127
"ef0ab7523742e158ec7d3963b238fdf7","cs_wg_mon_conf_choice_neg_real1","3K772S5NP9I6A7J09IZU5LB2JBNHEO",17,0,"AUGUST",10,"NOVEMBER",7,1,2104,NA,NA,NA,NA,0,"2019-06-05 12:15:18",125128
"01bccaa4dd71661a7bc855c50cc08033","cs_wg_mon_conf_choice_neg_real1","33OOO72IVISHIIQHDLAOTGEN9T5CT0",4,0,"DECEMBER",10,"JUNE",7,1,1946,NA,NA,NA,NA,0,"2019-06-05 12:15:18",125129
"b007722bc37cd70d10475ac40ecc7b3c","cs_wg_mon_conf_choice_neg_real1","3LUY3GC6307DE92E5NTT8KLCJFT7PX",20,0,"NOVEMBER",10,"FEBRUARY",4,0,1406,NA,NA,NA,NA,0,"2019-06-05 12:15:18",125130
"65c24d0990f2c00efdeb0eda1a720966","cs_wg_mon_conf_choice_neg_real1","3WRFBPLXRBVVA5PENWDBRE41EY6N3C",2,0,"SEPTEMBER",14,"FEBRUARY",4,1,928,NA,NA,NA,NA,0,"2019-06-05 12:15:18",125131
"3672ba0dea8ca4c3af20936e2d0f55ae","cs_wg_mon_conf_choice_neg_real1","3U5NZHP4LS9A7Y8QIWF5ZXA6XIPHP9",14,0,"APRIL",9,"MARCH",7,0,247,NA,NA,NA,NA,0,"2019-06-05 12:15:18",125132
"313d98b69d3d4f352a3ffbef73ba44f9","cs_wg_mon_conf_choice_neg_real1","3OF2M9AATHVVNSB4BQG43NSCZYZZKF",15,0,"NOVEMBER",6,"SEPTEMBER",9,1,831,NA,NA,NA,NA,0,"2019-06-05 12:15:18",125133
"d5062a49bf0db1c385c0f222ebb4ba67","cs_wg_mon_conf_choice_neg_real1","3XUHV3NRVL56EOQ7YH6R1R5P6IO5HB",2,0,"FEBRUARY",0,"SEPTEMBER",10,0,517,NA,NA,NA,NA,0,"2019-06-05 12:15:19",125134
"91d0c857b88006fd8110c5eef2c0ecb2","cs_wg_mon_conf_choice_neg_real1","3TXMY6UCAFV4Q2YPWHGTOB30PM6CQM",0,0,"DECEMBER",5,"JULY",5,1,9910,NA,NA,NA,NA,0,"2019-06-05 12:15:19",125135
"03b602885b5804bf01afc9a814a19c30","cs_wg_mon_conf_choice_neg_real1","3CTOC39K38XHSYZGAAO9BOZ0AGN7JX",11,0,"MAY",9,"NOVEMBER",2,1,1141,NA,NA,NA,NA,0,"2019-06-05 12:15:19",125136
"46069a952754aca388d18129bfd46f6d","cs_wg_mon_conf_choice_neg_real1","3IQ1VMJRYURA5OK5V19GWLNNFJHA9W",55,0,"NOVEMBER",9,"JUNE",12,0,132,NA,NA,NA,NA,0,"2019-06-05 12:15:19",125137
"0606a6422ccf8697f3cdaf1ba5938c0e","cs_wg_mon_conf_choice_neg_real1","3HYA4D452SQU1VGEL8GT0ZQ06TK2F9",28,0,"JUNE",4,"JANUARY",3,1,655,NA,NA,NA,NA,0,"2019-06-05 12:15:19",125138
"aa1d5b03db0621cc7b9e52f923bd7d41","cs_wg_mon_conf_choice_neg_real1","3QY5DC2MXSR3L7PG4SQZ6ILSPK3UFJ",42,0,"JULY",12,"DECEMBER",0,1,348,NA,NA,NA,NA,0,"2019-06-05 12:15:19",125139
"acb9811940a7f4e9730d36be0a30e7fc","cs_wg_mon_conf_choice_neg_real1","38JBBYETQPHCYVV5UBFBBW2YE614EP",4,0,"OCTOBER",10,"FEBRUARY",11,0,1034,NA,NA,NA,NA,0,"2019-06-05 12:15:20",125140
"5528af7ee0e138e557b032194547d5bf","cs_wg_mon_conf_choice_neg_real1","379J5II41PN8W32Q03ESXD490SWELS",12,0,"JULY",9,"DECEMBER",10,1,951,NA,NA,NA,NA,0,"2019-06-05 12:15:20",125141
"a502708665d7f923db9acd8187705704","cs_wg_mon_conf_choice_neg_real1","3R3YRB5GRGA8PG88TC47SHA1S4RAUN",14,0,"AUGUST",9,"FEBRUARY",7,0,1131,NA,NA,NA,NA,0,"2019-06-05 12:15:20",125142
"97f0244747728f90f985af0f5134c2b6","cs_wg_mon_conf_choice_neg_real1","36NEMU28XGKMJL62LF9DJWQY71RMWI",10,0,"AUGUST",7,"JUNE",6,0,794,NA,NA,NA,NA,0,"2019-06-05 12:15:20",125143
"83c0b73c9ab49fec14345a1c6b769ec0","cs_wg_mon_conf_choice_neg_real1","3Z4AIRP3C7K4CWP32YM11NG2IS1X1D",11,0,"JUNE",7,"AUGUST",5,1,1518,NA,NA,NA,NA,0,"2019-06-05 12:15:20",125144
"d6220ba5dd432def120772e2e1454e3c","cs_wg_mon_conf_choice_neg_real1","3EICBYG6453N4FUC1RWKRAREBRECJV",32,0,"DECEMBER",11,"NOVEMBER",6,0,887,NA,NA,NA,NA,0,"2019-06-05 12:15:20",125145
"ef0ab7523742e158ec7d3963b238fdf7","cs_wg_mon_conf_choice_neg_real1","3K772S5NP9I6A7J09IZU5LB2JBNHEO",18,0,"JANUARY",5,"FEBRUARY",10,1,1455,NA,NA,NA,NA,0,"2019-06-05 12:15:20",125146
"46069a952754aca388d18129bfd46f6d","cs_wg_mon_conf_choice_neg_real1","3IQ1VMJRYURA5OK5V19GWLNNFJHA9W",56,0,"MARCH",4,"APRIL",4,0,183,NA,NA,NA,NA,0,"2019-06-05 12:15:20",125147
"3672ba0dea8ca4c3af20936e2d0f55ae","cs_wg_mon_conf_choice_neg_real1","3U5NZHP4LS9A7Y8QIWF5ZXA6XIPHP9",15,0,"JULY",6,"MARCH",3,0,281,NA,NA,NA,NA,0,"2019-06-05 12:15:20",125148
"145a21fdb5bafa538b0f19fea5e40b91","cs_wg_mon_conf_choice_neg_real1","3JBT3HLQF99WYJ8KOILCZ4EBT85ZPG",3,0,"AUGUST",10,"JULY",6,0,1170,NA,NA,NA,NA,0,"2019-06-05 12:15:21",125149
"4ce73caf0540517e6cee3a82ec10425e","cs_wg_mon_conf_choice_neg_real1","3R5F3LQFV3REDJWJ9I8XA49LJ39ZOZ",10,0,"NOVEMBER",4,"FEBRUARY",7,1,1847,NA,NA,NA,NA,0,"2019-06-05 12:15:21",125150
"313d98b69d3d4f352a3ffbef73ba44f9","cs_wg_mon_conf_choice_neg_real1","3OF2M9AATHVVNSB4BQG43NSCZYZZKF",16,0,"OCTOBER",7,"JANUARY",6,0,646,NA,NA,NA,NA,0,"2019-06-05 12:15:21",125151
"b007722bc37cd70d10475ac40ecc7b3c","cs_wg_mon_conf_choice_neg_real1","3LUY3GC6307DE92E5NTT8KLCJFT7PX",21,0,"APRIL",9,"JUNE",6,0,1296,NA,NA,NA,NA,0,"2019-06-05 12:15:21",125152
"d5062a49bf0db1c385c0f222ebb4ba67","cs_wg_mon_conf_choice_neg_real1","3XUHV3NRVL56EOQ7YH6R1R5P6IO5HB",3,0,"MARCH",10,"FEBRUARY",1,1,510,NA,NA,NA,NA,0,"2019-06-05 12:15:21",125153
"0606a6422ccf8697f3cdaf1ba5938c0e","cs_wg_mon_conf_choice_neg_real1","3HYA4D452SQU1VGEL8GT0ZQ06TK2F9",29,0,"JANUARY",4,"MAY",11,1,763,NA,NA,NA,NA,0,"2019-06-05 12:15:21",125154
"aa1d5b03db0621cc7b9e52f923bd7d41","cs_wg_mon_conf_choice_neg_real1","3QY5DC2MXSR3L7PG4SQZ6ILSPK3UFJ",43,0,"OCTOBER",12,"AUGUST",12,1,602,NA,NA,NA,NA,0,"2019-06-05 12:15:21",125155
"922cdd7a04398b2a20d8a0ea057fef45","cs_wg_mon_conf_choice_neg_real1","3S96KQ6I9NBRNAWVDH5ZDMW5UTHDT1",6,0,"MARCH",6,"FEBRUARY",1,0,3615,NA,NA,NA,NA,0,"2019-06-05 12:15:21",125156
"adcee5ecf15a329d2c6291b5e01d7191","cs_wg_mon_conf_choice_neg_real1","3YGXWBAF71OX1XBRYK9GL82VTUO4CW",7,0,"OCTOBER",1,"SEPTEMBER",5,1,1686,NA,NA,NA,NA,0,"2019-06-05 12:15:22",125157
"c6e6b8d0f24a8eca0431fee027778ccf","cs_wg_mon_conf_choice_neg_real1","32AT8R96GMGCPCU2ACQYDH47EAXUS2",11,0,"SEPTEMBER",12,"JANUARY",2,0,2259,NA,NA,NA,NA,0,"2019-06-05 12:15:22",125158
"792de444e782773689cfe01b3b4b1748","cs_wg_mon_conf_choice_neg_real1","354P56DE9LAAR1I6X4XN3PQN6Z07SD",2,0,"MAY",12,"JUNE",5,0,3086,NA,NA,NA,NA,0,"2019-06-05 12:15:22",125159
"7beae255fd7d34f1cbf5d3515d72128b","cs_wg_mon_conf_choice_neg_real1","39ASUFLU6YE3WXJFEMHG87ZW716EXE",6,0,"MARCH",10,"JULY",5,0,2932,NA,NA,NA,NA,0,"2019-06-05 12:15:22",125160
"46069a952754aca388d18129bfd46f6d","cs_wg_mon_conf_choice_neg_real1","3IQ1VMJRYURA5OK5V19GWLNNFJHA9W",57,0,"FEBRUARY",7,"APRIL",2,0,153,NA,NA,NA,NA,0,"2019-06-05 12:15:22",125161
"d9f95e4b4bb24a34da0eaf6b10a60f08","cs_wg_mon_conf_choice_neg_real1","3NXNZ5RS1B4SMMM7OYXWMULXEBB792",10,0,"MARCH",9,"SEPTEMBER",12,1,1782,NA,NA,NA,NA,0,"2019-06-05 12:15:22",125162
"acb9811940a7f4e9730d36be0a30e7fc","cs_wg_mon_conf_choice_neg_real1","38JBBYETQPHCYVV5UBFBBW2YE614EP",5,0,"DECEMBER",-1,"NOVEMBER",4,0,615,NA,NA,NA,NA,0,"2019-06-05 12:15:22",125163
"03b602885b5804bf01afc9a814a19c30","cs_wg_mon_conf_choice_neg_real1","3CTOC39K38XHSYZGAAO9BOZ0AGN7JX",12,0,"DECEMBER",8,"JULY",4,1,1017,NA,NA,NA,NA,0,"2019-06-05 12:15:22",125164
"01bccaa4dd71661a7bc855c50cc08033","cs_wg_mon_conf_choice_neg_real1","33OOO72IVISHIIQHDLAOTGEN9T5CT0",5,0,"JUNE",8,"NOVEMBER",11,1,1942,NA,NA,NA,NA,0,"2019-06-05 12:15:23",125165
"65c24d0990f2c00efdeb0eda1a720966","cs_wg_mon_conf_choice_neg_real1","3WRFBPLXRBVVA5PENWDBRE41EY6N3C",3,0,"JANUARY",9,"SEPTEMBER",14,1,1388,NA,NA,NA,NA,0,"2019-06-05 12:15:23",125166
"a502708665d7f923db9acd8187705704","cs_wg_mon_conf_choice_neg_real1","3R3YRB5GRGA8PG88TC47SHA1S4RAUN",15,0,"SEPTEMBER",1,"APRIL",3,0,1154,NA,NA,NA,NA,0,"2019-06-05 12:15:23",125167
"d6220ba5dd432def120772e2e1454e3c","cs_wg_mon_conf_choice_neg_real1","3EICBYG6453N4FUC1RWKRAREBRECJV",33,0,"FEBRUARY",4,"JUNE",1,0,958,NA,NA,NA,NA,0,"2019-06-05 12:15:23",125168
"97f0244747728f90f985af0f5134c2b6","cs_wg_mon_conf_choice_neg_real1","36NEMU28XGKMJL62LF9DJWQY71RMWI",11,0,"JULY",1,"FEBRUARY",6,1,1067,NA,NA,NA,NA,0,"2019-06-05 12:15:23",125169
"5528af7ee0e138e557b032194547d5bf","cs_wg_mon_conf_choice_neg_real1","379J5II41PN8W32Q03ESXD490SWELS",13,0,"MARCH",8,"SEPTEMBER",8,1,765,NA,NA,NA,NA,0,"2019-06-05 12:15:23",125170
"83c0b73c9ab49fec14345a1c6b769ec0","cs_wg_mon_conf_choice_neg_real1","3Z4AIRP3C7K4CWP32YM11NG2IS1X1D",12,0,"APRIL",9,"MAY",-2,0,1020,NA,NA,NA,NA,0,"2019-06-05 12:15:23",125171
"aa1d5b03db0621cc7b9e52f923bd7d41","cs_wg_mon_conf_choice_neg_real1","3QY5DC2MXSR3L7PG4SQZ6ILSPK3UFJ",44,0,"SEPTEMBER",8,"AUGUST",9,1,243,NA,NA,NA,NA,0,"2019-06-05 12:15:23",125172
"3672ba0dea8ca4c3af20936e2d0f55ae","cs_wg_mon_conf_choice_neg_real1","3U5NZHP4LS9A7Y8QIWF5ZXA6XIPHP9",16,0,"NOVEMBER",12,"OCTOBER",4,0,530,NA,NA,NA,NA,0,"2019-06-05 12:15:23",125173
"313d98b69d3d4f352a3ffbef73ba44f9","cs_wg_mon_conf_choice_neg_real1","3OF2M9AATHVVNSB4BQG43NSCZYZZKF",17,0,"DECEMBER",3,"JULY",4,1,1078,NA,NA,NA,NA,0,"2019-06-05 12:15:23",125174
"46069a952754aca388d18129bfd46f6d","cs_wg_mon_conf_choice_neg_real1","3IQ1VMJRYURA5OK5V19GWLNNFJHA9W",58,0,"JULY",5,"NOVEMBER",8,0,205,NA,NA,NA,NA,0,"2019-06-05 12:15:24",125175
"0606a6422ccf8697f3cdaf1ba5938c0e","cs_wg_mon_conf_choice_neg_real1","3HYA4D452SQU1VGEL8GT0ZQ06TK2F9",30,0,"DECEMBER",15,"JUNE",6,1,758,NA,NA,NA,NA,0,"2019-06-05 12:15:24",125176
"9b1544bef9f96d79a951810764453784","cs_wg_mon_conf_choice_neg_real1","3JC6VJ2SACQR41ITSBWZK5ILTNYA55",3,0,"AUGUST",2,"JUNE",1,1,4413,NA,NA,NA,NA,0,"2019-06-05 12:15:24",125177
"4ce73caf0540517e6cee3a82ec10425e","cs_wg_mon_conf_choice_neg_real1","3R5F3LQFV3REDJWJ9I8XA49LJ39ZOZ",11,0,"APRIL",11,"DECEMBER",1,0,1152,NA,NA,NA,NA,0,"2019-06-05 12:15:24",125178
"ef0ab7523742e158ec7d3963b238fdf7","cs_wg_mon_conf_choice_neg_real1","3K772S5NP9I6A7J09IZU5LB2JBNHEO",19,0,"JULY",5,"JANUARY",1,1,1214,NA,NA,NA,NA,0,"2019-06-05 12:15:24",125179
"d5062a49bf0db1c385c0f222ebb4ba67","cs_wg_mon_conf_choice_neg_real1","3XUHV3NRVL56EOQ7YH6R1R5P6IO5HB",4,0,"APRIL",4,"MARCH",13,1,716,NA,NA,NA,NA,0,"2019-06-05 12:15:24",125180
"cb7a97d1b84b2f7db47d0702c0552ad0","cs_wg_mon_conf_choice_neg_real1","3NJM2BJS4XDJQQXAW414O6DQKQKCPV",0,0,"MARCH",2,"MAY",5,1,7302,NA,NA,NA,NA,0,"2019-06-05 12:15:24",125181
"73e424d79e3ca8f7d3cc8c8244d30878","cs_wg_mon_conf_choice_neg_real1","3OSWBBLG1F4Y4R5FIR6W2PHB7P4XD3",0,0,"NOVEMBER",7,"JANUARY",5,0,13440,NA,NA,NA,NA,0,"2019-06-05 12:15:24",125182
"aa1d5b03db0621cc7b9e52f923bd7d41","cs_wg_mon_conf_choice_neg_real1","3QY5DC2MXSR3L7PG4SQZ6ILSPK3UFJ",45,0,"JANUARY",12,"DECEMBER",-1,1,258,NA,NA,NA,NA,0,"2019-06-05 12:15:25",125183
"a9c0956b473f3faeda6bbaf2cbac32a1","cs_wg_mon_conf_choice_neg_real1","3OVR4I9USQQ1VYLA32AB5DRCX9P4Q1",2,0,"APRIL",11,"DECEMBER",9,1,3658,NA,NA,NA,NA,0,"2019-06-05 12:15:25",125184
"2a74d78b51669090f8a6d97909151eda","cs_wg_mon_conf_choice_neg_real1","3VD82FOHKRV15QL9H4OPZ680ALOCOE",8,0,"JANUARY",9,"DECEMBER",9,1,2933,NA,NA,NA,NA,0,"2019-06-05 12:15:25",125185
"01f9c492df46b84d0e30a2551492afaf","cs_wg_mon_conf_choice_neg_real1","3GGAI1SQEW5D5N0X4O9C72JVFL9CMZ",1,0,"JULY",3,"AUGUST",14,0,4297,NA,NA,NA,NA,0,"2019-06-05 12:15:25",125186
"4e647d8afe3ad4afee614629541a9bc4","cs_wg_mon_conf_choice_neg_real1","3GA6AFUKOPV30933KYIYMU75SMXH3X",22,0,"JUNE",2,"FEBRUARY",5,1,5560,NA,NA,NA,NA,0,"2019-06-05 12:15:25",125187
"a502708665d7f923db9acd8187705704","cs_wg_mon_conf_choice_neg_real1","3R3YRB5GRGA8PG88TC47SHA1S4RAUN",16,0,"MAY",10,"APRIL",4,0,741,NA,NA,NA,NA,0,"2019-06-05 12:15:25",125188
"d6220ba5dd432def120772e2e1454e3c","cs_wg_mon_conf_choice_neg_real1","3EICBYG6453N4FUC1RWKRAREBRECJV",34,0,"APRIL",3,"DECEMBER",11,1,754,NA,NA,NA,NA,0,"2019-06-05 12:15:25",125189
"46069a952754aca388d18129bfd46f6d","cs_wg_mon_conf_choice_neg_real1","3IQ1VMJRYURA5OK5V19GWLNNFJHA9W",59,0,"JULY",5,"OCTOBER",8,0,204,NA,NA,NA,NA,0,"2019-06-05 12:15:25",125190
"5528af7ee0e138e557b032194547d5bf","cs_wg_mon_conf_choice_neg_real1","379J5II41PN8W32Q03ESXD490SWELS",14,0,"MAY",0,"SEPTEMBER",3,1,435,NA,NA,NA,NA,0,"2019-06-05 12:15:25",125191
"3672ba0dea8ca4c3af20936e2d0f55ae","cs_wg_mon_conf_choice_neg_real1","3U5NZHP4LS9A7Y8QIWF5ZXA6XIPHP9",17,0,"OCTOBER",1,"FEBRUARY",8,1,122,NA,NA,NA,NA,0,"2019-06-05 12:15:25",125192
"0139cd9fbefdf10ba048ff8923b8e13a","cs_wg_mon_conf_choice_neg_real1","3H8DHMCCWAISKR68J8R7CV99BGQDKV",0,0,"JANUARY",8,"APRIL",13,1,5559,NA,NA,NA,NA,0,"2019-06-05 12:15:25",125193
"145a21fdb5bafa538b0f19fea5e40b91","cs_wg_mon_conf_choice_neg_real1","3JBT3HLQF99WYJ8KOILCZ4EBT85ZPG",4,0,"JUNE",4,"AUGUST",13,1,2205,NA,NA,NA,NA,0,"2019-06-05 12:15:25",125194
"83c0b73c9ab49fec14345a1c6b769ec0","cs_wg_mon_conf_choice_neg_real1","3Z4AIRP3C7K4CWP32YM11NG2IS1X1D",13,0,"FEBRUARY",11,"MARCH",7,0,1118,NA,NA,NA,NA,0,"2019-06-05 12:15:26",125195
"0606a6422ccf8697f3cdaf1ba5938c0e","cs_wg_mon_conf_choice_neg_real1","3HYA4D452SQU1VGEL8GT0ZQ06TK2F9",31,0,"APRIL",0,"JULY",7,0,1079,NA,NA,NA,NA,0,"2019-06-05 12:15:26",125196
"acb9811940a7f4e9730d36be0a30e7fc","cs_wg_mon_conf_choice_neg_real1","38JBBYETQPHCYVV5UBFBBW2YE614EP",6,0,"MARCH",6,"OCTOBER",9,0,1084,NA,NA,NA,NA,0,"2019-06-05 12:15:26",125197
"b007722bc37cd70d10475ac40ecc7b3c","cs_wg_mon_conf_choice_neg_real1","3LUY3GC6307DE92E5NTT8KLCJFT7PX",22,0,"DECEMBER",5,"AUGUST",7,1,2898,NA,NA,NA,NA,0,"2019-06-05 12:15:26",125198
"aa1d5b03db0621cc7b9e52f923bd7d41","cs_wg_mon_conf_choice_neg_real1","3QY5DC2MXSR3L7PG4SQZ6ILSPK3UFJ",46,0,"JUNE",5,"DECEMBER",0,0,236,NA,NA,NA,NA,0,"2019-06-05 12:15:26",125199
"03b602885b5804bf01afc9a814a19c30","cs_wg_mon_conf_choice_neg_real1","3CTOC39K38XHSYZGAAO9BOZ0AGN7JX",13,0,"JUNE",12,"AUGUST",2,0,833,NA,NA,NA,NA,0,"2019-06-05 12:15:26",125200
"65c24d0990f2c00efdeb0eda1a720966","cs_wg_mon_conf_choice_neg_real1","3WRFBPLXRBVVA5PENWDBRE41EY6N3C",4,0,"NOVEMBER",1,"MAY",8,0,1268,NA,NA,NA,NA,0,"2019-06-05 12:15:27",125201
"7beae255fd7d34f1cbf5d3515d72128b","cs_wg_mon_conf_choice_neg_real1","39ASUFLU6YE3WXJFEMHG87ZW716EXE",7,0,"SEPTEMBER",5,"OCTOBER",15,0,2104,NA,NA,NA,NA,0,"2019-06-05 12:15:27",125202
"91d0c857b88006fd8110c5eef2c0ecb2","cs_wg_mon_conf_choice_neg_real1","3TXMY6UCAFV4Q2YPWHGTOB30PM6CQM",1,0,"SEPTEMBER",5,"APRIL",2,0,4017,NA,NA,NA,NA,0,"2019-06-05 12:15:27",125203
"46069a952754aca388d18129bfd46f6d","cs_wg_mon_conf_choice_neg_real1","3IQ1VMJRYURA5OK5V19GWLNNFJHA9W",60,0,"DECEMBER",13,"MARCH",1,0,208,NA,NA,NA,NA,0,"2019-06-05 12:15:27",125204
"d5062a49bf0db1c385c0f222ebb4ba67","cs_wg_mon_conf_choice_neg_real1","3XUHV3NRVL56EOQ7YH6R1R5P6IO5HB",5,0,"NOVEMBER",9,"JULY",2,0,527,NA,NA,NA,NA,0,"2019-06-05 12:15:27",125205
"01bccaa4dd71661a7bc855c50cc08033","cs_wg_mon_conf_choice_neg_real1","33OOO72IVISHIIQHDLAOTGEN9T5CT0",6,0,"JUNE",4,"FEBRUARY",7,1,1915,NA,NA,NA,NA,0,"2019-06-05 12:15:27",125206
"792de444e782773689cfe01b3b4b1748","cs_wg_mon_conf_choice_neg_real1","354P56DE9LAAR1I6X4XN3PQN6Z07SD",3,0,"MARCH",5,"JUNE",1,0,3233,NA,NA,NA,NA,0,"2019-06-05 12:15:27",125207
"4ce73caf0540517e6cee3a82ec10425e","cs_wg_mon_conf_choice_neg_real1","3R5F3LQFV3REDJWJ9I8XA49LJ39ZOZ",12,0,"OCTOBER",6,"MARCH",15,1,1072,NA,NA,NA,NA,0,"2019-06-05 12:15:27",125208
"922cdd7a04398b2a20d8a0ea057fef45","cs_wg_mon_conf_choice_neg_real1","3S96KQ6I9NBRNAWVDH5ZDMW5UTHDT1",7,0,"AUGUST",10,"SEPTEMBER",4,1,1486,NA,NA,NA,NA,0,"2019-06-05 12:15:27",125209
"d9f95e4b4bb24a34da0eaf6b10a60f08","cs_wg_mon_conf_choice_neg_real1","3NXNZ5RS1B4SMMM7OYXWMULXEBB792",11,0,"MAY",1,"FEBRUARY",4,1,2414,NA,NA,NA,NA,0,"2019-06-05 12:15:27",125210
"c6e6b8d0f24a8eca0431fee027778ccf","cs_wg_mon_conf_choice_neg_real1","32AT8R96GMGCPCU2ACQYDH47EAXUS2",12,0,"APRIL",10,"MAY",2,1,2693,NA,NA,NA,NA,0,"2019-06-05 12:15:27",125211
"adcee5ecf15a329d2c6291b5e01d7191","cs_wg_mon_conf_choice_neg_real1","3YGXWBAF71OX1XBRYK9GL82VTUO4CW",8,0,"DECEMBER",10,"FEBRUARY",0,0,2067,NA,NA,NA,NA,0,"2019-06-05 12:15:28",125212
"aa1d5b03db0621cc7b9e52f923bd7d41","cs_wg_mon_conf_choice_neg_real1","3QY5DC2MXSR3L7PG4SQZ6ILSPK3UFJ",47,0,"APRIL",9,"JANUARY",11,0,171,NA,NA,NA,NA,0,"2019-06-05 12:15:28",125213
"a502708665d7f923db9acd8187705704","cs_wg_mon_conf_choice_neg_real1","3R3YRB5GRGA8PG88TC47SHA1S4RAUN",17,0,"DECEMBER",8,"FEBRUARY",8,0,1125,NA,NA,NA,NA,0,"2019-06-05 12:15:28",125214
"ef0ab7523742e158ec7d3963b238fdf7","cs_wg_mon_conf_choice_neg_real1","3K772S5NP9I6A7J09IZU5LB2JBNHEO",20,0,"JULY",7,"DECEMBER",7,1,1934,NA,NA,NA,NA,0,"2019-06-05 12:15:28",125215
"46069a952754aca388d18129bfd46f6d","cs_wg_mon_conf_choice_neg_real1","3IQ1VMJRYURA5OK5V19GWLNNFJHA9W",61,0,"OCTOBER",11,"MARCH",1,0,134,NA,NA,NA,NA,0,"2019-06-05 12:15:28",125216
"3672ba0dea8ca4c3af20936e2d0f55ae","cs_wg_mon_conf_choice_neg_real1","3U5NZHP4LS9A7Y8QIWF5ZXA6XIPHP9",18,0,"OCTOBER",4,"MARCH",5,1,354,NA,NA,NA,NA,0,"2019-06-05 12:15:28",125217
"0606a6422ccf8697f3cdaf1ba5938c0e","cs_wg_mon_conf_choice_neg_real1","3HYA4D452SQU1VGEL8GT0ZQ06TK2F9",32,0,"OCTOBER",-1,"FEBRUARY",4,1,903,NA,NA,NA,NA,0,"2019-06-05 12:15:28",125218
"97f0244747728f90f985af0f5134c2b6","cs_wg_mon_conf_choice_neg_real1","36NEMU28XGKMJL62LF9DJWQY71RMWI",12,0,"DECEMBER",11,"JANUARY",2,1,3287,NA,NA,NA,NA,0,"2019-06-05 12:15:28",125219
"9b1544bef9f96d79a951810764453784","cs_wg_mon_conf_choice_neg_real1","3JC6VJ2SACQR41ITSBWZK5ILTNYA55",4,0,"SEPTEMBER",9,"MAY",7,1,2107,NA,NA,NA,NA,0,"2019-06-05 12:15:29",125220
"b007722bc37cd70d10475ac40ecc7b3c","cs_wg_mon_conf_choice_neg_real1","3LUY3GC6307DE92E5NTT8KLCJFT7PX",23,0,"MAY",10,"MARCH",1,0,1378,NA,NA,NA,NA,0,"2019-06-05 12:15:29",125221
"83c0b73c9ab49fec14345a1c6b769ec0","cs_wg_mon_conf_choice_neg_real1","3Z4AIRP3C7K4CWP32YM11NG2IS1X1D",14,0,"OCTOBER",1,"MAY",1,0,1392,NA,NA,NA,NA,0,"2019-06-05 12:15:29",125222
"d5062a49bf0db1c385c0f222ebb4ba67","cs_wg_mon_conf_choice_neg_real1","3XUHV3NRVL56EOQ7YH6R1R5P6IO5HB",6,0,"NOVEMBER",6,"JANUARY",5,0,446,NA,NA,NA,NA,0,"2019-06-05 12:15:29",125223
"aa1d5b03db0621cc7b9e52f923bd7d41","cs_wg_mon_conf_choice_neg_real1","3QY5DC2MXSR3L7PG4SQZ6ILSPK3UFJ",48,0,"JULY",10,"MAY",5,1,270,NA,NA,NA,NA,0,"2019-06-05 12:15:29",125224
"313d98b69d3d4f352a3ffbef73ba44f9","cs_wg_mon_conf_choice_neg_real1","3OF2M9AATHVVNSB4BQG43NSCZYZZKF",18,0,"DECEMBER",5,"MAY",10,1,3192,NA,NA,NA,NA,0,"2019-06-05 12:15:29",125225
"acb9811940a7f4e9730d36be0a30e7fc","cs_wg_mon_conf_choice_neg_real1","38JBBYETQPHCYVV5UBFBBW2YE614EP",7,0,"AUGUST",1,"OCTOBER",7,0,1024,NA,NA,NA,NA,0,"2019-06-05 12:15:29",125226
"d6220ba5dd432def120772e2e1454e3c","cs_wg_mon_conf_choice_neg_real1","3EICBYG6453N4FUC1RWKRAREBRECJV",35,0,"NOVEMBER",5,"OCTOBER",10,1,1961,NA,NA,NA,NA,0,"2019-06-05 12:15:29",125227
"4e647d8afe3ad4afee614629541a9bc4","cs_wg_mon_conf_choice_neg_real1","3GA6AFUKOPV30933KYIYMU75SMXH3X",23,0,"AUGUST",1,"JANUARY",9,0,2727,NA,NA,NA,NA,0,"2019-06-05 12:15:29",125228
"2a74d78b51669090f8a6d97909151eda","cs_wg_mon_conf_choice_neg_real1","3VD82FOHKRV15QL9H4OPZ680ALOCOE",9,0,"JULY",6,"MAY",11,1,1899,NA,NA,NA,NA,0,"2019-06-05 12:15:30",125229
"46069a952754aca388d18129bfd46f6d","cs_wg_mon_conf_choice_neg_real1","3IQ1VMJRYURA5OK5V19GWLNNFJHA9W",62,0,"AUGUST",3,"APRIL",2,0,87,NA,NA,NA,NA,0,"2019-06-05 12:15:30",125230
"03b602885b5804bf01afc9a814a19c30","cs_wg_mon_conf_choice_neg_real1","3CTOC39K38XHSYZGAAO9BOZ0AGN7JX",14,0,"MAY",10,"JULY",0,0,982,NA,NA,NA,NA,0,"2019-06-05 12:15:30",125231
"65c24d0990f2c00efdeb0eda1a720966","cs_wg_mon_conf_choice_neg_real1","3WRFBPLXRBVVA5PENWDBRE41EY6N3C",5,0,"JULY",11,"JANUARY",8,1,657,NA,NA,NA,NA,0,"2019-06-05 12:15:30",125232
"5528af7ee0e138e557b032194547d5bf","cs_wg_mon_conf_choice_neg_real1","379J5II41PN8W32Q03ESXD490SWELS",15,0,"DECEMBER",12,"JANUARY",2,1,2622,NA,NA,NA,NA,0,"2019-06-05 12:15:30",125233
"7beae255fd7d34f1cbf5d3515d72128b","cs_wg_mon_conf_choice_neg_real1","39ASUFLU6YE3WXJFEMHG87ZW716EXE",8,0,"AUGUST",6,"OCTOBER",12,1,1787,NA,NA,NA,NA,0,"2019-06-05 12:15:30",125234
"ef0ab7523742e158ec7d3963b238fdf7","cs_wg_mon_conf_choice_neg_real1","3K772S5NP9I6A7J09IZU5LB2JBNHEO",21,0,"AUGUST",11,"MARCH",2,0,1340,NA,NA,NA,NA,0,"2019-06-05 12:15:30",125235
"0606a6422ccf8697f3cdaf1ba5938c0e","cs_wg_mon_conf_choice_neg_real1","3HYA4D452SQU1VGEL8GT0ZQ06TK2F9",33,0,"JANUARY",6,"APRIL",-1,0,603,NA,NA,NA,NA,0,"2019-06-05 12:15:30",125236
"a502708665d7f923db9acd8187705704","cs_wg_mon_conf_choice_neg_real1","3R3YRB5GRGA8PG88TC47SHA1S4RAUN",18,0,"DECEMBER",7,"SEPTEMBER",0,1,811,NA,NA,NA,NA,0,"2019-06-05 12:15:31",125237
"cb7a97d1b84b2f7db47d0702c0552ad0","cs_wg_mon_conf_choice_neg_real1","3NJM2BJS4XDJQQXAW414O6DQKQKCPV",1,0,"FEBRUARY",10,"NOVEMBER",8,1,715,NA,NA,NA,NA,0,"2019-06-05 12:15:31",125238
"145a21fdb5bafa538b0f19fea5e40b91","cs_wg_mon_conf_choice_neg_real1","3JBT3HLQF99WYJ8KOILCZ4EBT85ZPG",5,0,"APRIL",12,"JULY",4,1,2620,NA,NA,NA,NA,0,"2019-06-05 12:15:31",125239
"4ce73caf0540517e6cee3a82ec10425e","cs_wg_mon_conf_choice_neg_real1","3R5F3LQFV3REDJWJ9I8XA49LJ39ZOZ",13,0,"JULY",1,"JUNE",3,1,1520,NA,NA,NA,NA,0,"2019-06-05 12:15:31",125240
"97f0244747728f90f985af0f5134c2b6","cs_wg_mon_conf_choice_neg_real1","36NEMU28XGKMJL62LF9DJWQY71RMWI",13,0,"FEBRUARY",9,"MAY",4,0,660,NA,NA,NA,NA,0,"2019-06-05 12:15:31",125241
"aa1d5b03db0621cc7b9e52f923bd7d41","cs_wg_mon_conf_choice_neg_real1","3QY5DC2MXSR3L7PG4SQZ6ILSPK3UFJ",49,0,"DECEMBER",0,"OCTOBER",9,1,357,NA,NA,NA,NA,0,"2019-06-05 12:15:31",125242
"922cdd7a04398b2a20d8a0ea057fef45","cs_wg_mon_conf_choice_neg_real1","3S96KQ6I9NBRNAWVDH5ZDMW5UTHDT1",8,0,"JANUARY",6,"AUGUST",7,1,1171,NA,NA,NA,NA,0,"2019-06-05 12:15:31",125243
"46069a952754aca388d18129bfd46f6d","cs_wg_mon_conf_choice_neg_real1","3IQ1VMJRYURA5OK5V19GWLNNFJHA9W",63,0,"JULY",5,"DECEMBER",11,0,175,NA,NA,NA,NA,0,"2019-06-05 12:15:31",125244
"d5062a49bf0db1c385c0f222ebb4ba67","cs_wg_mon_conf_choice_neg_real1","3XUHV3NRVL56EOQ7YH6R1R5P6IO5HB",7,0,"JULY",0,"SEPTEMBER",7,1,494,NA,NA,NA,NA,0,"2019-06-05 12:15:31",125245
"b007722bc37cd70d10475ac40ecc7b3c","cs_wg_mon_conf_choice_neg_real1","3LUY3GC6307DE92E5NTT8KLCJFT7PX",24,0,"MAY",7,"DECEMBER",2,0,700,NA,NA,NA,NA,0,"2019-06-05 12:15:31",125246
"3672ba0dea8ca4c3af20936e2d0f55ae","cs_wg_mon_conf_choice_neg_real1","3U5NZHP4LS9A7Y8QIWF5ZXA6XIPHP9",19,0,"JUNE",12,"SEPTEMBER",12,0,1465,NA,NA,NA,NA,0,"2019-06-05 12:15:32",125247
"d6220ba5dd432def120772e2e1454e3c","cs_wg_mon_conf_choice_neg_real1","3EICBYG6453N4FUC1RWKRAREBRECJV",36,0,"APRIL",2,"NOVEMBER",2,1,823,NA,NA,NA,NA,0,"2019-06-05 12:15:32",125248
"01bccaa4dd71661a7bc855c50cc08033","cs_wg_mon_conf_choice_neg_real1","33OOO72IVISHIIQHDLAOTGEN9T5CT0",7,0,"MARCH",10,"AUGUST",5,0,2317,NA,NA,NA,NA,0,"2019-06-05 12:15:32",125249
"01f9c492df46b84d0e30a2551492afaf","cs_wg_mon_conf_choice_neg_real1","3GGAI1SQEW5D5N0X4O9C72JVFL9CMZ",2,0,"AUGUST",10,"FEBRUARY",1,1,2609,NA,NA,NA,NA,0,"2019-06-05 12:15:32",125250
"a9c0956b473f3faeda6bbaf2cbac32a1","cs_wg_mon_conf_choice_neg_real1","3OVR4I9USQQ1VYLA32AB5DRCX9P4Q1",3,0,"SEPTEMBER",5,"OCTOBER",5,0,3630,NA,NA,NA,NA,0,"2019-06-05 12:15:32",125251
"adcee5ecf15a329d2c6291b5e01d7191","cs_wg_mon_conf_choice_neg_real1","3YGXWBAF71OX1XBRYK9GL82VTUO4CW",9,0,"MARCH",9,"JANUARY",9,0,2238,NA,NA,NA,NA,0,"2019-06-05 12:15:32",125252
"313d98b69d3d4f352a3ffbef73ba44f9","cs_wg_mon_conf_choice_neg_real1","3OF2M9AATHVVNSB4BQG43NSCZYZZKF",19,0,"DECEMBER",6,"FEBRUARY",8,0,1473,NA,NA,NA,NA,0,"2019-06-05 12:15:32",125253
"ef0ab7523742e158ec7d3963b238fdf7","cs_wg_mon_conf_choice_neg_real1","3K772S5NP9I6A7J09IZU5LB2JBNHEO",22,0,"AUGUST",11,"APRIL",-3,0,839,NA,NA,NA,NA,0,"2019-06-05 12:15:32",125254
"46069a952754aca388d18129bfd46f6d","cs_wg_mon_conf_choice_neg_real1","3IQ1VMJRYURA5OK5V19GWLNNFJHA9W",64,0,"JUNE",15,"SEPTEMBER",11,0,105,NA,NA,NA,NA,0,"2019-06-05 12:15:33",125255
"03b602885b5804bf01afc9a814a19c30","cs_wg_mon_conf_choice_neg_real1","3CTOC39K38XHSYZGAAO9BOZ0AGN7JX",15,0,"MARCH",9,"JANUARY",-1,0,1179,NA,NA,NA,NA,0,"2019-06-05 12:15:33",125256
"aa1d5b03db0621cc7b9e52f923bd7d41","cs_wg_mon_conf_choice_neg_real1","3QY5DC2MXSR3L7PG4SQZ6ILSPK3UFJ",50,0,"NOVEMBER",4,"APRIL",6,0,186,NA,NA,NA,NA,0,"2019-06-05 12:15:33",125257
"792de444e782773689cfe01b3b4b1748","cs_wg_mon_conf_choice_neg_real1","354P56DE9LAAR1I6X4XN3PQN6Z07SD",4,0,"JANUARY",10,"NOVEMBER",12,1,3065,NA,NA,NA,NA,0,"2019-06-05 12:15:33",125258
"0606a6422ccf8697f3cdaf1ba5938c0e","cs_wg_mon_conf_choice_neg_real1","3HYA4D452SQU1VGEL8GT0ZQ06TK2F9",34,0,"OCTOBER",2,"SEPTEMBER",8,1,677,NA,NA,NA,NA,0,"2019-06-05 12:15:33",125259
"5528af7ee0e138e557b032194547d5bf","cs_wg_mon_conf_choice_neg_real1","379J5II41PN8W32Q03ESXD490SWELS",16,0,"MAY",2,"JANUARY",5,1,926,NA,NA,NA,NA,0,"2019-06-05 12:15:33",125260
"83c0b73c9ab49fec14345a1c6b769ec0","cs_wg_mon_conf_choice_neg_real1","3Z4AIRP3C7K4CWP32YM11NG2IS1X1D",15,0,"OCTOBER",1,"JUNE",6,0,1537,NA,NA,NA,NA,0,"2019-06-05 12:15:33",125261
"4e647d8afe3ad4afee614629541a9bc4","cs_wg_mon_conf_choice_neg_real1","3GA6AFUKOPV30933KYIYMU75SMXH3X",24,0,"SEPTEMBER",9,"AUGUST",4,1,1573,NA,NA,NA,NA,0,"2019-06-05 12:15:33",125262
"a502708665d7f923db9acd8187705704","cs_wg_mon_conf_choice_neg_real1","3R3YRB5GRGA8PG88TC47SHA1S4RAUN",19,0,"JULY",9,"JUNE",4,1,891,NA,NA,NA,NA,0,"2019-06-05 12:15:33",125263
"65c24d0990f2c00efdeb0eda1a720966","cs_wg_mon_conf_choice_neg_real1","3WRFBPLXRBVVA5PENWDBRE41EY6N3C",6,0,"DECEMBER",2,"JUNE",8,0,979,NA,NA,NA,NA,0,"2019-06-05 12:15:33",125264
"97f0244747728f90f985af0f5134c2b6","cs_wg_mon_conf_choice_neg_real1","36NEMU28XGKMJL62LF9DJWQY71RMWI",14,0,"JUNE",10,"MAY",6,0,926,NA,NA,NA,NA,0,"2019-06-05 12:15:34",125265
"73e424d79e3ca8f7d3cc8c8244d30878","cs_wg_mon_conf_choice_neg_real1","3OSWBBLG1F4Y4R5FIR6W2PHB7P4XD3",1,0,"JANUARY",5,"DECEMBER",12,0,4661,NA,NA,NA,NA,0,"2019-06-05 12:15:34",125266
"2a74d78b51669090f8a6d97909151eda","cs_wg_mon_conf_choice_neg_real1","3VD82FOHKRV15QL9H4OPZ680ALOCOE",10,0,"DECEMBER",6,"NOVEMBER",3,0,1767,NA,NA,NA,NA,0,"2019-06-05 12:15:34",125267
"9b1544bef9f96d79a951810764453784","cs_wg_mon_conf_choice_neg_real1","3JC6VJ2SACQR41ITSBWZK5ILTNYA55",5,0,"SEPTEMBER",12,"DECEMBER",6,0,2144,NA,NA,NA,NA,0,"2019-06-05 12:15:34",125268
"3672ba0dea8ca4c3af20936e2d0f55ae","cs_wg_mon_conf_choice_neg_real1","3U5NZHP4LS9A7Y8QIWF5ZXA6XIPHP9",20,0,"JANUARY",3,"FEBRUARY",7,0,288,NA,NA,NA,NA,0,"2019-06-05 12:15:34",125269
"cb7a97d1b84b2f7db47d0702c0552ad0","cs_wg_mon_conf_choice_neg_real1","3NJM2BJS4XDJQQXAW414O6DQKQKCPV",2,0,"DECEMBER",4,"APRIL",8,1,1294,NA,NA,NA,NA,0,"2019-06-05 12:15:34",125270
"d5062a49bf0db1c385c0f222ebb4ba67","cs_wg_mon_conf_choice_neg_real1","3XUHV3NRVL56EOQ7YH6R1R5P6IO5HB",8,0,"NOVEMBER",10,"FEBRUARY",5,0,742,NA,NA,NA,NA,0,"2019-06-05 12:15:34",125271
"c6e6b8d0f24a8eca0431fee027778ccf","cs_wg_mon_conf_choice_neg_real1","32AT8R96GMGCPCU2ACQYDH47EAXUS2",13,0,"JUNE",12,"DECEMBER",6,0,2568,NA,NA,NA,NA,0,"2019-06-05 12:15:34",125272
"4ce73caf0540517e6cee3a82ec10425e","cs_wg_mon_conf_choice_neg_real1","3R5F3LQFV3REDJWJ9I8XA49LJ39ZOZ",14,0,"AUGUST",6,"DECEMBER",0,0,1322,NA,NA,NA,NA,0,"2019-06-05 12:15:34",125273
"46069a952754aca388d18129bfd46f6d","cs_wg_mon_conf_choice_neg_real1","3IQ1VMJRYURA5OK5V19GWLNNFJHA9W",65,0,"JUNE",13,"NOVEMBER",5,0,229,NA,NA,NA,NA,0,"2019-06-05 12:15:34",125274
